"","view_history","rt","trial_type","trial_index","time_elapsed","internal_node_id","subject","country_code","stimulus","key_press","stimulus_type","correct","left_object","right_object","activate","box","startTime","endTime","RT","choice","sameSide","samePair","diffPair"
"1","[{""page_index"":0,""viewing_time"":42327},{""page_index"":1,""viewing_time"":8927}]","51254","instructions","0","51257","0.0-0.0",1,"US","","","","","","","","","","","","","","",""
"2","","3880","audio-keyboard-response","1","57171","0.0-1.0",1,"US","sound/letter.wav","81","congruent","true","","","","","","","","","","",""
"3","","","RMTStrain","2","78252","0.0-2.0",1,"US","","","","","img/k.png","img/k.png","true","img/box.png","1568223721980","1568223743060","","","","",""
"4","","","RMTStrain","3","100173","0.0-3.0",1,"US","","","","","img/m.png","img/c.png","false","img/box.png","1568223743060","1568223764981","","","","",""
"5","","","RMTStrain","4","118263","0.0-4.0",1,"US","","","","","img/i.png","img/i.png","true","img/box.png","1568223764981","1568223783071","","","","",""
"6","","","RMTStrain","5","139460","0.0-5.0",1,"US","","","","","img/g.png","img/h.png","false","img/box.png","1568223783071","1568223804268","","","","",""
"7","[{""page_index"":0,""viewing_time"":5392}]","5393","instructions","6","144853","0.0-6.0",1,"US","","","","","","","","","","","","","","",""
"8","","","RMTStest","7","149029","0.0-7.0",1,"US","","","","","","","","img/box.png","1568223811661","","-1568223659152.165","leftTestButton","R","img/n.png,img/n.png","img/l.png,img/f.png"
"9","","","RMTStest","8","150061","0.0-8.0",1,"US","","","","","","","","img/box.png","1568223813837","","-1568223660295.985","rightTestButton","L","img/j.png,img/j.png","img/d.png,img/b.png"
"10","","","RMTStest","9","151216","0.0-9.0",1,"US","","","","","","","","img/box.png","1568223814869","","-1568223660172.665","leftTestButton","R","img/o.png,img/o.png","img/e.png,img/a.png"
"11","[{""page_index"":0,""viewing_time"":3136}]","3136","instructions","10","154352","0.0-10.0",1,"US","","","","","","","","","","","","","","",""
"12","","","RMTStrain","11","175542","0.0-11.0",1,"US","","","","","img/6.png","img/1.png","true","img/hatbox.png","1568223821162","1568223840350","","","","",""
"13","","","RMTStrain","12","193962","0.0-12.0",1,"US","","","","","img/9.png","img/9.png","false","img/hatbox.png","1568223840351","1568223858769","","","","",""
"14","","","RMTStrain","13","214583","0.0-13.0",1,"US","","","","","img/11.png","img/12.png","true","img/hatbox.png","1568223858770","1568223879390","","","","",""
"15","","","RMTStrain","14","233606","0.0-14.0",1,"US","","","","","img/7.png","img/7.png","false","img/hatbox.png","1568223879391","1568223898414","","","","",""
"16","[{""page_index"":0,""viewing_time"":1302}]","1302","instructions","15","234909","0.0-15.0",1,"US","","","","","","","","","","","","","","",""
"17","","","RMTStest","16","240781","0.0-16.0",1,"US","","","","","","","","img/hatbox.png","1568223901719","","-1568223657457.505","leftTestButton","L","img/10.png,img/10.png","img/4.png,img/3.png"
"18","","","RMTStest","17","242871","0.0-17.0",1,"US","","","","","","","","img/hatbox.png","1568223905589","","-1568223659237.71","leftTestButton","L","img/14.png,img/14.png","img/8.png,img/13.png"
"19","","","RMTStest","18","244463","0.0-18.0",1,"US","","","","","","","","img/hatbox.png","1568223907679","","-1568223659735.455","leftTestButton","R","img/2.png,img/2.png","img/5.png,img/15.png"
"20","[{""page_index"":0,""viewing_time"":43933},{""page_index"":1,""viewing_time"":8986}]","52919","instructions","0","52921","0.0-0.0",2,"US","","","","","","","","","","","","","","",""
"21","","3669","audio-keyboard-response","1","58714","0.0-1.0",2,"US","sound/letter.wav","81","congruent","true","","","","","","","","","","",""
"22","","","RMTStrain","2","88385","0.0-2.0",2,"US","","","","","img/i.png","img/i.png","true","img/box.png","1568313302753","1568313332423","","","","",""
"23","","","RMTStrain","3","112060","0.0-3.0",2,"US","","","","","img/e.png","img/k.png","false","img/box.png","1568313332423","1568313356098","","","","",""
"24","","","RMTStrain","4","132287","0.0-4.0",2,"US","","","","","img/j.png","img/j.png","true","img/box.png","1568313356098","1568313376325","","","","",""
"25","","","RMTStrain","5","166671","0.0-5.0",2,"US","","","","","img/f.png","img/o.png","false","img/box.png","1568313376326","1568313410709","","","","",""
"26","[{""page_index"":0,""viewing_time"":10579}]","10580","instructions","6","177251","0.0-6.0",2,"US","","","","","","","","","","","","","","",""
"27","","","RMTStest","7","181988","0.0-7.0",2,"US","","","","","","","","img/box.png","1568313423293","","-1568313235504.775","leftTestButton","L","img/m.png,img/m.png","img/b.png,img/n.png"
"28","","","RMTStest","8","184038","0.0-8.0",2,"US","","","","","","","","img/box.png","1568313426027","","-1568313236188.805","rightTestButton","R","img/a.png,img/a.png","img/c.png,img/h.png"
"29","","","RMTStest","9","187342","0.0-9.0",2,"US","","","","","","","","img/box.png","1568313428076","","-1568313234933.705","rightTestButton","R","img/d.png,img/d.png","img/g.png,img/l.png"
"30","[{""page_index"":0,""viewing_time"":4823}]","4823","instructions","10","192166","0.0-10.0",2,"US","","","","","","","","","","","","","","",""
"31","","","RMTStrain","11","214875","0.0-11.0",2,"US","","","","","img/11.png","img/12.png","true","img/hatbox.png","1568313438206","1568313458913","","","","",""
"32","","","RMTStrain","12","244063","0.0-12.0",2,"US","","","","","img/8.png","img/8.png","false","img/hatbox.png","1568313458913","1568313488101","","","","",""
"33","","","RMTStrain","13","278229","0.0-13.0",2,"US","","","","","img/6.png","img/1.png","true","img/hatbox.png","1568313488101","1568313522267","","","","",""
"34","","","RMTStrain","14","325157","0.0-14.0",2,"US","","","","","img/15.png","img/15.png","false","img/hatbox.png","1568313522267","1568313569195","","","","",""
"35","[{""page_index"":0,""viewing_time"":26410}]","26410","instructions","15","351567","0.0-15.0",2,"US","","","","","","","","","","","","","","",""
"36","","","RMTStest","16","356492","0.0-16.0",2,"US","","","","","","","","img/hatbox.png","1568313597608","","-1568313235314.125","rightTestButton","L","img/4.png,img/4.png","img/14.png,img/13.png"
"37","","","RMTStest","17","357713","0.0-17.0",2,"US","","","","","","","","img/hatbox.png","1568313600530","","-1568313237015.01","leftTestButton","R","img/2.png,img/2.png","img/10.png,img/7.png"
"38","","","RMTStest","18","358944","0.0-18.0",2,"US","","","","","","","","img/hatbox.png","1568313601751","","-1568313237005.155","rightTestButton","L","img/5.png,img/5.png","img/9.png,img/3.png"
"39","[{""page_index"":0,""viewing_time"":115152},{""page_index"":1,""viewing_time"":744514}]","859668","instructions","0","859670","0.0-0.0",3,"US","","","","","","","","","","","","","","",""
"40","","2771","audio-keyboard-response","1","864609","0.0-1.0",3,"US","sound/letter.wav","81","congruent","true","","","","","","","","","","",""
"41","","","RMTStrain","2","1557454","0.0-2.0",3,"US","","","","","img/5.png","img/1.png","true","img/box.png","1565379362551","1565380055395","","","","",""
"42","","","RMTStrain","3","1575400","0.0-3.0",3,"US","","","","","img/14.png","img/14.png","false","img/box.png","1565380055397","1565380073341","","","","",""
"43","","","RMTStrain","4","1608218","0.0-4.0",3,"US","","","","","img/4.png","img/15.png","true","img/box.png","1565380073342","1565380106159","","","","",""
"44","","","RMTStrain","5","1628759","0.0-5.0",3,"US","","","","","img/2.png","img/2.png","false","img/box.png","1565380106159","1565380126700","","","","",""
"45","[{""page_index"":0,""viewing_time"":9140}]","9141","instructions","6","1637901","0.0-6.0",3,"US","","","","","","","","","","","","","","",""
"46","","","RMTStest","7","1641940","0.0-7.0",3,"US","","","","","","","","img/box.png","1565380137844","","-1565378490794.495","leftTestButton","R","img/8.png,img/8.png","img/3.png,img/13.png"
"47","","","RMTStest","8","1645220","0.0-8.0",3,"US","","","","","","","","img/box.png","1565380139881","","-1565378489551.135","rightTestButton","L","img/6.png,img/6.png","img/11.png,img/7.png"
"48","","","RMTStest","9","1647188","0.0-9.0",3,"US","","","","","","","","img/box.png","1565380143161","","-1565378490863.16","leftTestButton","R","img/9.png,img/9.png","img/12.png,img/10.png"
"49","[{""page_index"":0,""viewing_time"":7789}]","7789","instructions","10","1654977","0.0-10.0",3,"US","","","","","","","","","","","","","","",""
"50","","","RMTStrain","11","1676441","0.0-11.0",3,"US","","","","","img/g.png","img/g.png","true","img/hatbox.png","1565380154920","1565380174382","","","","",""
"51","","","RMTStrain","12","1695418","0.0-12.0",3,"US","","","","","img/n.png","img/k.png","false","img/hatbox.png","1565380174382","1565380193359","","","","",""
"52","","","RMTStrain","13","1713812","0.0-13.0",3,"US","","","","","img/h.png","img/h.png","true","img/hatbox.png","1565380193359","1565380211753","","","","",""
"53","","","RMTStrain","14","1731690","0.0-14.0",3,"US","","","","","img/d.png","img/o.png","false","img/hatbox.png","1565380211754","1565380229631","","","","",""
"54","[{""page_index"":0,""viewing_time"":3368}]","3368","instructions","15","1735058","0.0-15.0",3,"US","","","","","","","","","","","","","","",""
"55","","","RMTStest","16","1739711","0.0-16.0",3,"US","","","","","","","","img/hatbox.png","1565380235001","","-1565378490180.7","leftTestButton","L","img/j.png,img/j.png","img/e.png,img/i.png"
"56","","","RMTStest","17","1741879","0.0-17.0",3,"US","","","","","","","","img/hatbox.png","1565380237652","","-1565378490663.475","leftTestButton","L","img/b.png,img/b.png","img/a.png,img/m.png"
"57","","","RMTStest","18","1743739","0.0-18.0",3,"US","","","","","","","","img/hatbox.png","1565380239820","","-1565378490971.575","rightTestButton","R","img/f.png,img/f.png","img/c.png,img/l.png"
"58","[{""page_index"":0,""viewing_time"":1278},{""page_index"":1,""viewing_time"":11729}]","13008","instructions","0","13011","0.0-0.0",4,"US","","","","","","","","","","","","","","",""
"59","","4269","audio-keyboard-response","1","19289","0.0-1.0",4,"US","sound/letter.wav","81","congruent","true","","","","","","","","","","",""
"60","","","RMTStrain","2","42617","0.0-2.0",4,"US","","","","","img/n.png","img/n.png","true","img/box.png","1568223511224","1568223534551","","","","",""
"61","","","RMTStrain","3","66002","0.0-3.0",4,"US","","","","","img/f.png","img/c.png","false","img/box.png","1568223534551","1568223557936","","","","",""
"62","","","RMTStrain","4","88297","0.0-4.0",4,"US","","","","","img/j.png","img/j.png","true","img/box.png","1568223557936","1568223580231","","","","",""
"63","","","RMTStrain","5","107895","0.0-5.0",4,"US","","","","","img/o.png","img/i.png","false","img/box.png","1568223580231","1568223599829","","","","",""
"64","[{""page_index"":0,""viewing_time"":6183}]","6184","instructions","6","114079","0.0-6.0",4,"US","","","","","","","","","","","","","","",""
"65","","","RMTStest","7","121529","0.0-7.0",4,"US","","","","","","","","img/box.png","1568223608014","","-1568223485133.11","rightTestButton","R","img/h.png,img/h.png","img/b.png,img/m.png"
"66","","","RMTStest","8","123381","0.0-8.0",4,"US","","","","","","","","img/box.png","1568223613463","","-1568223488730.175","leftTestButton","L","img/l.png,img/l.png","img/k.png,img/d.png"
"67","","","RMTStest","9","125114","0.0-9.0",4,"US","","","","","","","","img/box.png","1568223615315","","-1568223488848.345","leftTestButton","L","img/e.png,img/e.png","img/a.png,img/g.png"
"68","[{""page_index"":0,""viewing_time"":6568}]","6568","instructions","10","131682","0.0-10.0",4,"US","","","","","","","","","","","","","","",""
"69","","","RMTStrain","11","152948","0.0-11.0",4,"US","","","","","img/8.png","img/14.png","true","img/hatbox.png","1568223625617","1568223644882","","","","",""
"70","","","RMTStrain","12","172016","0.0-12.0",4,"US","","","","","img/3.png","img/3.png","false","img/hatbox.png","1568223644882","1568223663950","","","","",""
"71","","","RMTStrain","13","198896","0.0-13.0",4,"US","","","","","img/2.png","img/12.png","true","img/hatbox.png","1568223663950","1568223690830","","","","",""
"72","","","RMTStrain","14","222589","0.0-14.0",4,"US","","","","","img/1.png","img/1.png","false","img/hatbox.png","1568223690831","1568223714523","","","","",""
"73","[{""page_index"":0,""viewing_time"":4354}]","4354","instructions","15","226943","0.0-15.0",4,"US","","","","","","","","","","","","","","",""
"74","","","RMTStest","16","230429","0.0-16.0",4,"US","","","","","","","","img/hatbox.png","1568223720879","","-1568223489097.76","rightTestButton","L","img/15.png,img/15.png","img/4.png,img/6.png"
"75","","","RMTStest","17","232377","0.0-17.0",4,"US","","","","","","","","img/hatbox.png","1568223722363","","-1568223488633.43","leftTestButton","R","img/13.png,img/13.png","img/11.png,img/9.png"
"76","","","RMTStest","18","234833","0.0-18.0",4,"US","","","","","","","","img/hatbox.png","1568223724312","","-1568223488126.765","leftTestButton","R","img/5.png,img/5.png","img/10.png,img/7.png"
"77","[{""page_index"":0,""viewing_time"":2240},{""page_index"":1,""viewing_time"":4471}]","6711","instructions","0","6712","0.0-0.0",5,"US","","","","","","","","","","","","","","",""
"78","","2720","audio-keyboard-response","1","11435","0.0-1.0",5,"US","sound/letter.wav","81","congruent","true","","","","","","","","","","",""
"79","","","RMTStrain","2","33467","0.0-2.0",5,"US","","","","","img/h.png","img/b.png","true","img/box.png","1568598842970","1568598865002","","","","",""
"80","","","RMTStrain","3","59560","0.0-3.0",5,"US","","","","","img/m.png","img/m.png","false","img/box.png","1568598865002","1568598891095","","","","",""
"81","","","RMTStrain","4","78176","0.0-4.0",5,"US","","","","","img/j.png","img/e.png","true","img/box.png","1568598891095","1568598909711","","","","",""
"82","","","RMTStrain","5","96088","0.0-5.0",5,"US","","","","","img/d.png","img/d.png","false","img/box.png","1568598909711","1568598927623","","","","",""
"83","[{""page_index"":0,""viewing_time"":4585}]","4586","instructions","6","100674","0.0-6.0",5,"US","","","","","","","","","","","","","","",""
"84","","","RMTStest","7","108274","0.0-7.0",5,"US","","","","","","","","img/box.png","1568598934211","","-1568598824986.79","leftTestButton","L","img/o.png,img/o.png","img/l.png,img/g.png"
"85","","","RMTStest","8","111274","0.0-8.0",5,"US","","","","","","","","img/box.png","1568598939809","","-1568598827584.185","leftTestButton","L","img/a.png,img/a.png","img/n.png,img/f.png"
"86","","","RMTStest","9","114681","0.0-9.0",5,"US","","","","","","","","img/box.png","1568598942809","","-1568598827177.335","leftTestButton","R","img/i.png,img/i.png","img/c.png,img/k.png"
"87","[{""page_index"":0,""viewing_time"":4615}]","4616","instructions","10","119297","0.0-10.0",5,"US","","","","","","","","","","","","","","",""
"88","","","RMTStrain","11","143481","0.0-11.0",5,"US","","","","","img/8.png","img/8.png","true","img/hatbox.png","1568598952834","1568598975016","","","","",""
"89","","","RMTStrain","12","161886","0.0-12.0",5,"US","","","","","img/14.png","img/13.png","false","img/hatbox.png","1568598975017","1568598993421","","","","",""
"90","","","RMTStrain","13","181525","0.0-13.0",5,"US","","","","","img/5.png","img/5.png","true","img/hatbox.png","1568598993421","1568599013060","","","","",""
"91","","","RMTStrain","14","210455","0.0-14.0",5,"US","","","","","img/2.png","img/1.png","false","img/hatbox.png","1568599013061","1568599041990","","","","",""
"92","[{""page_index"":0,""viewing_time"":1530}]","1531","instructions","15","211986","0.0-15.0",5,"US","","","","","","","","","","","","","","",""
"93","","","RMTStest","16","215337","0.0-16.0",5,"US","","","","","","","","img/hatbox.png","1568599045522","","-1568598829234.735","leftTestButton","L","img/6.png,img/6.png","img/10.png,img/9.png"
"94","","","RMTStest","17","217729","0.0-17.0",5,"US","","","","","","","","img/hatbox.png","1568599046872","","-1568598828192.11","rightTestButton","R","img/4.png,img/4.png","img/11.png,img/3.png"
"95","","","RMTStest","18","219033","0.0-18.0",5,"US","","","","","","","","img/hatbox.png","1568599049265","","-1568598829281.3","leftTestButton","R","img/15.png,img/15.png","img/7.png,img/12.png"
"96","[{""page_index"":0,""viewing_time"":410679},{""page_index"":1,""viewing_time"":17532}]","428212","instructions","0","428213","0.0-0.0",6,"US","","","","","","","","","","","","","","",""
"97","","3019","audio-keyboard-response","1","433244","0.0-1.0",6,"US","sound/letter.wav","81","congruent","true","","","","","","","","","","",""
"98","","","RMTStrain","2","454011","0.0-2.0",6,"US","","","","","img/b.png","img/o.png","true","img/box.png","1568318075265","1568318096031","","","","",""
"99","","","RMTStrain","3","478542","0.0-3.0",6,"US","","","","","img/g.png","img/g.png","false","img/box.png","1568318096031","1568318120561","","","","",""
"100","","","RMTStrain","4","512856","0.0-4.0",6,"US","","","","","img/n.png","img/j.png","true","img/box.png","1568318120562","1568318154876","","","","",""
"101","","","RMTStrain","5","580721","0.0-5.0",6,"US","","","","","img/h.png","img/h.png","false","img/box.png","1568318154877","1568318222741","","","","",""
"102","[{""page_index"":0,""viewing_time"":10305}]","10306","instructions","6","591027","0.0-6.0",6,"US","","","","","","","","","","","","","","",""
"103","","","RMTStest","7","595894","0.0-7.0",6,"US","","","","","","","","img/box.png","1568318235048","","-1568317636164.75","rightTestButton","L","img/c.png,img/c.png","img/k.png,img/i.png"
"104","","","RMTStest","8","598038","0.0-8.0",6,"US","","","","","","","","img/box.png","1568318237914","","-1568317636887","leftTestButton","R","img/f.png,img/f.png","img/e.png,img/a.png"
"105","","","RMTStest","9","599408","0.0-9.0",6,"US","","","","","","","","img/box.png","1568318240058","","-1568317637660.935","leftTestButton","R","img/m.png,img/m.png","img/l.png,img/d.png"
"106","[{""page_index"":0,""viewing_time"":5449}]","5450","instructions","10","604858","0.0-10.0",6,"US","","","","","","","","","","","","","","",""
"107","","","RMTStrain","11","626024","0.0-11.0",6,"US","","","","","img/6.png","img/6.png","true","img/hatbox.png","1568318248879","1568318268044","","","","",""
"108","","","RMTStrain","12","643956","0.0-12.0",6,"US","","","","","img/1.png","img/2.png","false","img/hatbox.png","1568318268044","1568318285976","","","","",""
"109","","","RMTStrain","13","661751","0.0-13.0",6,"US","","","","","img/14.png","img/14.png","true","img/hatbox.png","1568318285976","1568318303771","","","","",""
"110","","","RMTStrain","14","680112","0.0-14.0",6,"US","","","","","img/13.png","img/3.png","false","img/hatbox.png","1568318303771","1568318322132","","","","",""
"111","[{""page_index"":0,""viewing_time"":11031}]","11031","instructions","15","691143","0.0-15.0",6,"US","","","","","","","","","","","","","","",""
"112","","","RMTStest","16","694584","0.0-16.0",6,"US","","","","","","","","img/hatbox.png","1568318335163","","-1568317637590.155","leftTestButton","L","img/4.png,img/4.png","img/12.png,img/7.png"
"113","","","RMTStest","17","696206","0.0-17.0",6,"US","","","","","","","","img/hatbox.png","1568318336604","","-1568317637409.09","leftTestButton","L","img/8.png,img/8.png","img/5.png,img/11.png"
"114","","","RMTStest","18","697237","0.0-18.0",6,"US","","","","","","","","img/hatbox.png","1568318338226","","-1568317638000","rightTestButton","R","img/10.png,img/10.png","img/15.png,img/9.png"
"115","[{""page_index"":0,""viewing_time"":3404},{""page_index"":1,""viewing_time"":5910}]","9314","instructions","0","9317","0.0-0.0",7,"US","","","","","","","","","","","","","","",""
"116","","5421","audio-keyboard-response","1","16736","0.0-1.0",7,"US","sound/letter.wav","81","congruent","true","","","","","","","","","","",""
"117","","","RMTStrain","2","38577","0.0-2.0",7,"US","","","","","img/15.png","img/10.png","true","img/box.png","1568315925013","1568315946854","","","","",""
"118","","","RMTStrain","3","58141","0.0-3.0",7,"US","","","","","img/6.png","img/6.png","false","img/box.png","1568315946855","1568315966418","","","","",""
"119","","","RMTStrain","4","88945","0.0-4.0",7,"US","","","","","img/12.png","img/9.png","true","img/box.png","1568315966419","1568315997222","","","","",""
"120","","","RMTStrain","5","113786","0.0-5.0",7,"US","","","","","img/1.png","img/1.png","false","img/box.png","1568315997222","1568316022063","","","","",""
"121","[{""page_index"":0,""viewing_time"":11675}]","11675","instructions","6","125461","0.0-6.0",7,"US","","","","","","","","","","","","","","",""
"122","","","RMTStest","7","131747","0.0-7.0",7,"US","","","","","","","","img/box.png","1568316035740","","-1568315887434.705","leftTestButton","L","img/5.png,img/5.png","img/11.png,img/3.png"
"123","","","RMTStest","8","133543","0.0-8.0",7,"US","","","","","","","","img/box.png","1568316040025","","-1568315889923.835","leftTestButton","R","img/7.png,img/7.png","img/4.png,img/13.png"
"124","","","RMTStest","9","135255","0.0-9.0",7,"US","","","","","","","","img/box.png","1568316041820","","-1568315890006.945","rightTestButton","L","img/2.png,img/2.png","img/8.png,img/14.png"
"125","[{""page_index"":0,""viewing_time"":2394}]","2394","instructions","10","137649","0.0-10.0",7,"US","","","","","","","","","","","","","","",""
"126","","","RMTStrain","11","159747","0.0-11.0",7,"US","","","","","img/i.png","img/i.png","true","img/hatbox.png","1568316047928","1568316068024","","","","",""
"127","","","RMTStrain","12","189190","0.0-12.0",7,"US","","","","","img/d.png","img/e.png","false","img/hatbox.png","1568316068024","1568316097467","","","","",""
"128","","","RMTStrain","13","223489","0.0-13.0",7,"US","","","","","img/a.png","img/a.png","true","img/hatbox.png","1568316097467","1568316131766","","","","",""
"129","","","RMTStrain","14","243679","0.0-14.0",7,"US","","","","","img/h.png","img/f.png","false","img/hatbox.png","1568316131766","1568316151956","","","","",""
"130","[{""page_index"":0,""viewing_time"":3606}]","3606","instructions","15","247285","0.0-15.0",7,"US","","","","","","","","","","","","","","",""
"131","","","RMTStest","16","251522","0.0-16.0",7,"US","","","","","","","","img/hatbox.png","1568316157563","","-1568315889482.65","rightTestButton","R","img/l.png,img/l.png","img/b.png,img/j.png"
"132","","","RMTStest","17","252724","0.0-17.0",7,"US","","","","","","","","img/hatbox.png","1568316159800","","-1568315890517.55","leftTestButton","L","img/m.png,img/m.png","img/g.png,img/o.png"
"133","","","RMTStest","18","254169","0.0-18.0",7,"US","","","","","","","","img/hatbox.png","1568316161002","","-1568315890275.275","rightTestButton","R","img/n.png,img/n.png","img/k.png,img/c.png"
"134","[{""page_index"":0,""viewing_time"":1563},{""page_index"":1,""viewing_time"":1979}]","3543","instructions","0","3544","0.0-0.0",8,"US","","","","","","","","","","","","","","",""
"135","","941","audio-keyboard-response","1","6535","0.0-1.0",8,"US","sound/letter.wav","81","congruent","true","","","","","","","","","","",""
"136","","","RMTStrain","2","35042","0.0-2.0",8,"US","","","","","img/d.png","img/d.png","true","img/box.png","1568315074312","1568315102819","","","","",""
"137","","","RMTStrain","3","55767","0.0-3.0",8,"US","","","","","img/b.png","img/a.png","false","img/box.png","1568315102819","1568315123544","","","","",""
"138","","","RMTStrain","4","74127","0.0-4.0",8,"US","","","","","img/l.png","img/l.png","true","img/box.png","1568315123544","1568315141904","","","","",""
"139","","","RMTStrain","5","91891","0.0-5.0",8,"US","","","","","img/o.png","img/k.png","false","img/box.png","1568315141904","1568315159668","","","","",""
"140","[{""page_index"":0,""viewing_time"":6055}]","6055","instructions","6","97946","0.0-6.0",8,"US","","","","","","","","","","","","","","",""
"141","","","RMTStest","7","101696","0.0-7.0",8,"US","","","","","","","","img/box.png","1568315167724","","-1568315065191.34","rightTestButton","R","img/g.png,img/g.png","img/n.png,img/i.png"
"142","","","RMTStest","8","102921","0.0-8.0",8,"US","","","","","","","","img/box.png","1568315169473","","-1568315065715.325","leftTestButton","L","img/j.png,img/j.png","img/m.png,img/f.png"
"143","","","RMTStest","9","104332","0.0-9.0",8,"US","","","","","","","","img/box.png","1568315170698","","-1568315065529.3","rightTestButton","R","img/e.png,img/e.png","img/c.png,img/h.png"
"144","[{""page_index"":0,""viewing_time"":5300}]","5300","instructions","10","109632","0.0-10.0",8,"US","","","","","","","","","","","","","","",""
"145","","","RMTStrain","11","130584","0.0-11.0",8,"US","","","","","img/4.png","img/9.png","true","img/hatbox.png","1568315179410","1568315198361","","","","",""
"146","","","RMTStrain","12","148469","0.0-12.0",8,"US","","","","","img/11.png","img/11.png","false","img/hatbox.png","1568315198361","1568315216246","","","","",""
"147","","","RMTStrain","13","166253","0.0-13.0",8,"US","","","","","img/12.png","img/3.png","true","img/hatbox.png","1568315216246","1568315234030","","","","",""
"148","","","RMTStrain","14","186043","0.0-14.0",8,"US","","","","","img/5.png","img/5.png","false","img/hatbox.png","1568315234030","1568315253820","","","","",""
"149","[{""page_index"":0,""viewing_time"":2067}]","2067","instructions","15","188110","0.0-15.0",8,"US","","","","","","","","","","","","","","",""
"150","","","RMTStest","16","191830","0.0-16.0",8,"US","","","","","","","","img/hatbox.png","1568315257888","","-1568315065220.705","rightTestButton","L","img/13.png,img/13.png","img/7.png,img/14.png"
"151","","","RMTStest","17","193420","0.0-17.0",8,"US","","","","","","","","img/hatbox.png","1568315259607","","-1568315065349.56","rightTestButton","L","img/8.png,img/8.png","img/1.png,img/10.png"
"152","","","RMTStest","18","194999","0.0-18.0",8,"US","","","","","","","","img/hatbox.png","1568315261197","","-1568315065360.645","leftTestButton","R","img/6.png,img/6.png","img/15.png,img/2.png"
"153","[{""page_index"":0,""viewing_time"":2812870},{""page_index"":1,""viewing_time"":14377}]","2827247","instructions","0","2827249","0.0-0.0",9,"US","","","","","","","","","","","","","","",""
"154","","2264","audio-keyboard-response","1","2831530","0.0-1.0",9,"US","sound/letter.wav","81","congruent","true","","","","","","","","","","",""
"155","","","RMTStrain","2","2855427","0.0-2.0",9,"US","","","","","img/b.png","img/b.png","true","img/box.png","1568225561659","1568225585556","","","","",""
"156","","","RMTStrain","3","2878510","0.0-3.0",9,"US","","","","","img/g.png","img/o.png","false","img/box.png","1568225585556","1568225608639","","","","",""
"157","","","RMTStrain","4","2899392","0.0-4.0",9,"US","","","","","img/e.png","img/e.png","true","img/box.png","1568225608640","1568225629520","","","","",""
"158","","","RMTStrain","5","2923633","0.0-5.0",9,"US","","","","","img/f.png","img/h.png","false","img/box.png","1568225629521","1568225653762","","","","",""
"159","[{""page_index"":0,""viewing_time"":20146}]","20147","instructions","6","2943780","0.0-6.0",9,"US","","","","","","","","","","","","","","",""
"160","","","RMTStest","7","2951150","0.0-7.0",9,"US","","","","","","","","img/box.png","1568225675915","","-1568222718617.125","leftTestButton","R","img/i.png,img/i.png","img/k.png,img/a.png"
"161","","","RMTStest","8","2955284","0.0-8.0",9,"US","","","","","","","","img/box.png","1568225681279","","-1568222719846.14","rightTestButton","R","img/j.png,img/j.png","img/d.png,img/l.png"
"162","","","RMTStest","9","2957164","0.0-9.0",9,"US","","","","","","","","img/box.png","1568225685413","","-1568222722100.475","rightTestButton","L","img/c.png,img/c.png","img/n.png,img/m.png"
"163","[{""page_index"":0,""viewing_time"":2504}]","2504","instructions","10","2959668","0.0-10.0",9,"US","","","","","","","","","","","","","","",""
"164","","","RMTStrain","11","2982217","0.0-11.0",9,"US","","","","","img/11.png","img/4.png","true","img/hatbox.png","1568225691805","1568225712346","","","","",""
"165","","","RMTStrain","12","3002257","0.0-12.0",9,"US","","","","","img/5.png","img/5.png","false","img/hatbox.png","1568225712346","1568225732385","","","","",""
"166","","","RMTStrain","13","3023721","0.0-13.0",9,"US","","","","","img/6.png","img/12.png","true","img/hatbox.png","1568225732386","1568225753850","","","","",""
"167","","","RMTStrain","14","3042220","0.0-14.0",9,"US","","","","","img/9.png","img/9.png","false","img/hatbox.png","1568225753850","1568225772348","","","","",""
"168","[{""page_index"":0,""viewing_time"":9690}]","9691","instructions","15","3051911","0.0-15.0",9,"US","","","","","","","","","","","","","","",""
"169","","","RMTStest","16","3057936","0.0-16.0",9,"US","","","","","","","","img/hatbox.png","1568225784042","","-1568222719959.89","rightTestButton","L","img/15.png,img/15.png","img/7.png,img/3.png"
"170","","","RMTStest","17","3060767","0.0-17.0",9,"US","","","","","","","","img/hatbox.png","1568225788065","","-1568222721152.06","leftTestButton","R","img/2.png,img/2.png","img/8.png,img/13.png"
"171","","","RMTStest","18","3064055","0.0-18.0",9,"US","","","","","","","","img/hatbox.png","1568225790896","","-1568222720695.155","leftTestButton","L","img/14.png,img/14.png","img/1.png,img/10.png"
"172","[{""page_index"":0,""viewing_time"":46516},{""page_index"":1,""viewing_time"":11873}]","58392","instructions","0","58400","0.0-0.0",10,"US","","","","","","","","","","","","","","",""
"173","","2304","audio-keyboard-response","1","62712","0.0-1.0",10,"US","sound/letter.wav","81","congruent","true","","","","","","","","","","",""
"174","","","RMTStrain","2","87301","0.0-2.0",10,"US","","","","","img/e.png","img/e.png","true","img/box.png","1568313467025","1568313491610","","","","",""
"175","","","RMTStrain","3","107657","0.0-3.0",10,"US","","","","","img/c.png","img/d.png","false","img/box.png","1568313491615","1568313511967","","","","",""
"176","","","RMTStrain","4","126084","0.0-4.0",10,"US","","","","","img/h.png","img/h.png","true","img/box.png","1568313511972","1568313530395","","","","",""
"177","","","RMTStrain","5","144939","0.0-5.0",10,"US","","","","","img/i.png","img/l.png","false","img/box.png","1568313530395","1568313549250","","","","",""
"178","[{""page_index"":0,""viewing_time"":11857}]","11858","instructions","6","156797","0.0-6.0",10,"US","","","","","","","","","","","","","","",""
"179","","","RMTStest","7","160287","0.0-7.0",10,"US","","","","","","","","img/box.png","1568313563112","","-1568313395404.8","leftTestButton","L","img/j.png,img/j.png","img/g.png,img/o.png"
"180","","","RMTStest","8","161632","0.0-8.0",10,"US","","","","","","","","img/box.png","1568313564598","","-1568313395545.785","leftTestButton","L","img/a.png,img/a.png","img/b.png,img/f.png"
"181","","","RMTStest","9","162668","0.0-9.0",10,"US","","","","","","","","img/box.png","1568313565943","","-1568313395854.445","rightTestButton","R","img/k.png,img/k.png","img/m.png,img/n.png"
"182","[{""page_index"":0,""viewing_time"":4210}]","4211","instructions","10","166879","0.0-10.0",10,"US","","","","","","","","","","","","","","",""
"183","","","RMTStrain","11","188146","0.0-11.0",10,"US","","","","","img/8.png","img/12.png","true","img/hatbox.png","1568313573192","1568313592457","","","","",""
"184","","","RMTStrain","12","206299","0.0-12.0",10,"US","","","","","img/1.png","img/1.png","false","img/hatbox.png","1568313592457","1568313610610","","","","",""
"185","","","RMTStrain","13","228110","0.0-13.0",10,"US","","","","","img/6.png","img/10.png","true","img/hatbox.png","1568313610611","1568313632420","","","","",""
"186","","","RMTStrain","14","248274","0.0-14.0",10,"US","","","","","img/3.png","img/3.png","false","img/hatbox.png","1568313632423","1568313652584","","","","",""
"187","[{""page_index"":0,""viewing_time"":2185}]","2187","instructions","15","250463","0.0-15.0",10,"US","","","","","","","","","","","","","","",""
"188","","","RMTStest","16","253693","0.0-16.0",10,"US","","","","","","","","img/hatbox.png","1568313656775","","-1568313395662.075","rightTestButton","L","img/15.png,img/15.png","img/11.png,img/4.png"
"189","","","RMTStest","17","256739","0.0-17.0",10,"US","","","","","","","","img/hatbox.png","1568313658004","","-1568313393845.16","leftTestButton","R","img/13.png,img/13.png","img/7.png,img/5.png"
"190","","","RMTStest","18","257805","0.0-18.0",10,"US","","","","","","","","img/hatbox.png","1568313661050","","-1568313395824.71","leftTestButton","R","img/9.png,img/9.png","img/2.png,img/14.png"
"191","[{""page_index"":0,""viewing_time"":3404},{""page_index"":1,""viewing_time"":1287}]","4691","instructions","0","4698","0.0-0.0",11,"US","","","","","","","","","","","","","","",""
"192","","708","audio-keyboard-response","1","7418","0.0-1.0",11,"US","sound/letter.wav","81","congruent","true","","","","","","","","","","",""
"193","","","RMTStrain","2","40170","0.0-2.0",11,"US","","","","","img/f.png","img/k.png","true","img/box.png","1568313520673","1568313553422","","","","",""
"194","","","RMTStrain","3","64129","0.0-3.0",11,"US","","","","","img/b.png","img/b.png","false","img/box.png","1568313553425","1568313577382","","","","",""
"195","","","RMTStrain","4","85575","0.0-4.0",11,"US","","","","","img/o.png","img/c.png","true","img/box.png","1568313577383","1568313598828","","","","",""
"196","","","RMTStrain","5","104847","0.0-5.0",11,"US","","","","","img/l.png","img/l.png","false","img/box.png","1568313598830","1568313618100","","","","",""
"197","[{""page_index"":0,""viewing_time"":9545}]","9546","instructions","6","114395","0.0-6.0",11,"US","","","","","","","","","","","","","","",""
"198","","","RMTStest","7","126207","0.0-7.0",11,"US","","","","","","","","img/box.png","1568313629653","","-1568313502666","rightTestButton","L","img/a.png,img/a.png","img/g.png,img/e.png"
"199","","","RMTStest","8","129806","0.0-8.0",11,"US","","","","","","","","img/box.png","1568313639461","","-1568313508875","leftTestButton","R","img/i.png,img/i.png","img/h.png,img/n.png"
"200","","","RMTStest","9","131525","0.0-9.0",11,"US","","","","","","","","img/box.png","1568313643059","","-1568313510754","rightTestButton","L","img/m.png,img/m.png","img/d.png,img/j.png"
"201","[{""page_index"":0,""viewing_time"":8636}]","8636","instructions","10","140162","0.0-10.0",11,"US","","","","","","","","","","","","","","",""
"202","","","RMTStrain","11","162353","0.0-11.0",11,"US","","","","","img/7.png","img/7.png","true","img/hatbox.png","1568313655421","1568313675606","","","","",""
"203","","","RMTStrain","12","181703","0.0-12.0",11,"US","","","","","img/11.png","img/3.png","false","img/hatbox.png","1568313675606","1568313694956","","","","",""
"204","","","RMTStrain","13","212308","0.0-13.0",11,"US","","","","","img/12.png","img/12.png","true","img/hatbox.png","1568313694957","1568313725561","","","","",""
"205","","","RMTStrain","14","230917","0.0-14.0",11,"US","","","","","img/13.png","img/6.png","false","img/hatbox.png","1568313725562","1568313744170","","","","",""
"206","[{""page_index"":0,""viewing_time"":8188}]","8188","instructions","15","239108","0.0-15.0",11,"US","","","","","","","","","","","","","","",""
"207","","","RMTStest","16","242941","0.0-16.0",11,"US","","","","","","","","img/hatbox.png","1568313754367","","-1568313510646","rightTestButton","R","img/5.png,img/5.png","img/1.png,img/10.png"
"208","","","RMTStest","17","244054","0.0-17.0",11,"US","","","","","","","","img/hatbox.png","1568313756194","","-1568313511360","rightTestButton","R","img/9.png,img/9.png","img/2.png,img/14.png"
"209","","","RMTStest","18","245449","0.0-18.0",11,"US","","","","","","","","img/hatbox.png","1568313757307","","-1568313511079","leftTestButton","L","img/8.png,img/8.png","img/4.png,img/15.png"
"210","[{""page_index"":0,""viewing_time"":34850},{""page_index"":1,""viewing_time"":13377}]","48229","instructions","0","48248","0.0-0.0",12,"US","","","","","","","","","","","","","","",""
"211","","1845","audio-keyboard-response","1","52111","0.0-1.0",12,"US","sound/letter.wav","81","congruent","true","","","","","","","","","","",""
"212","","","RMTStrain","2","81261","0.0-2.0",12,"US","","","","","img/l.png","img/e.png","true","img/box.png","1565389259826","1565389288974","","","","",""
"213","","","RMTStrain","3","105797","0.0-3.0",12,"US","","","","","img/h.png","img/h.png","false","img/box.png","1565389288975","1565389313510","","","","",""
"214","","","RMTStrain","4","125515","0.0-4.0",12,"US","","","","","img/o.png","img/m.png","true","img/box.png","1565389313511","1565389333228","","","","",""
"215","","","RMTStrain","5","145196","0.0-5.0",12,"US","","","","","img/k.png","img/k.png","false","img/box.png","1565389333229","1565389352909","","","","",""
"216","[{""page_index"":0,""viewing_time"":10346}]","10347","instructions","6","155543","0.0-6.0",12,"US","","","","","","","","","","","","","","",""
"217","","","RMTStest","7","160540","0.0-7.0",12,"US","","","","","","","","img/box.png","1565389365258","","-1565389196729.27","rightTestButton","L","img/j.png,img/j.png","img/c.png,img/g.png"
"218","","","RMTStest","8","163299","0.0-8.0",12,"US","","","","","","","","img/box.png","1565389368254","","-1565389196966.16","leftTestButton","R","img/n.png,img/n.png","img/f.png,img/a.png"
"219","","","RMTStest","9","165400","0.0-9.0",12,"US","","","","","","","","img/box.png","1565389371012","","-1565389197623.375","leftTestButton","R","img/b.png,img/b.png","img/d.png,img/i.png"
"220","[{""page_index"":0,""viewing_time"":6039}]","6041","instructions","10","171442","0.0-10.0",12,"US","","","","","","","","","","","","","","",""
"221","","","RMTStrain","11","195715","0.0-11.0",12,"US","","","","","img/3.png","img/3.png","true","img/hatbox.png","1565389381156","1565389403427","","","","",""
"222","","","RMTStrain","12","214206","0.0-12.0",12,"US","","","","","img/12.png","img/9.png","false","img/hatbox.png","1565389403428","1565389421919","","","","",""
"223","","","RMTStrain","13","234147","0.0-13.0",12,"US","","","","","img/6.png","img/6.png","true","img/hatbox.png","1565389421920","1565389441860","","","","",""
"224","","","RMTStrain","14","252947","0.0-14.0",12,"US","","","","","img/10.png","img/11.png","false","img/hatbox.png","1565389441860","1565389460660","","","","",""
"225","[{""page_index"":0,""viewing_time"":10598}]","10600","instructions","15","263547","0.0-15.0",12,"US","","","","","","","","","","","","","","",""
"226","","","RMTStest","16","266794","0.0-16.0",12,"US","","","","","","","","img/hatbox.png","1565389473261","","-1565389198478.515","rightTestButton","R","img/1.png,img/1.png","img/8.png,img/15.png"
"227","","","RMTStest","17","268239","0.0-17.0",12,"US","","","","","","","","img/hatbox.png","1565389474507","","-1565389198279.04","leftTestButton","L","img/14.png,img/14.png","img/7.png,img/4.png"
"228","","","RMTStest","18","269360","0.0-18.0",12,"US","","","","","","","","img/hatbox.png","1565389475953","","-1565389198604.255","leftTestButton","L","img/5.png,img/5.png","img/13.png,img/2.png"
"229","[{""page_index"":0,""viewing_time"":355905},{""page_index"":1,""viewing_time"":3122}]","359027","instructions","0","359029","0.0-0.0",13,"US","","","","","","","","","","","","","","",""
"230","","2501","audio-keyboard-response","1","363518","0.0-1.0",13,"US","sound/letter.wav","81","congruent","true","","","","","","","","","","",""
"231","","","RMTStrain","2","419198","0.0-2.0",13,"US","","","","","img/f.png","img/l.png","true","img/box.png","1568223086331","1568223142010","","","","",""
"232","","","RMTStrain","3","439050","0.0-3.0",13,"US","","","","","img/n.png","img/n.png","false","img/box.png","1568223142011","1568223161862","","","","",""
"233","","","RMTStrain","4","458593","0.0-4.0",13,"US","","","","","img/a.png","img/g.png","true","img/box.png","1568223161862","1568223181405","","","","",""
"234","","","RMTStrain","5","476876","0.0-5.0",13,"US","","","","","img/i.png","img/i.png","false","img/box.png","1568223181406","1568223199688","","","","",""
"235","[{""page_index"":0,""viewing_time"":4855}]","4855","instructions","6","481731","0.0-6.0",13,"US","","","","","","","","","","","","","","",""
"236","","","RMTStest","7","486368","0.0-7.0",13,"US","","","","","","","","img/box.png","1568223206544","","-1568222716861.565","leftTestButton","R","img/e.png,img/e.png","img/c.png,img/h.png"
"237","","","RMTStest","8","488407","0.0-8.0",13,"US","","","","","","","","img/box.png","1568223209180","","-1568222717458.635","leftTestButton","L","img/d.png,img/d.png","img/b.png,img/m.png"
"238","","","RMTStest","9","490076","0.0-9.0",13,"US","","","","","","","","img/box.png","1568223211219","","-1568222717828.56","rightTestButton","L","img/o.png,img/o.png","img/k.png,img/j.png"
"239","[{""page_index"":0,""viewing_time"":1974}]","1974","instructions","10","492050","0.0-10.0",13,"US","","","","","","","","","","","","","","",""
"240","","","RMTStrain","11","512670","0.0-11.0",13,"US","","","","","img/7.png","img/7.png","true","img/hatbox.png","1568223216863","1568223235482","","","","",""
"241","","","RMTStrain","12","531180","0.0-12.0",13,"US","","","","","img/13.png","img/1.png","false","img/hatbox.png","1568223235483","1568223253992","","","","",""
"242","","","RMTStrain","13","549990","0.0-13.0",13,"US","","","","","img/12.png","img/12.png","true","img/hatbox.png","1568223253992","1568223272802","","","","",""
"243","","","RMTStrain","14","572719","0.0-14.0",13,"US","","","","","img/6.png","img/2.png","false","img/hatbox.png","1568223272802","1568223295531","","","","",""
"244","[{""page_index"":0,""viewing_time"":3191}]","3191","instructions","15","575911","0.0-15.0",13,"US","","","","","","","","","","","","","","",""
"245","","","RMTStest","16","580468","0.0-16.0",13,"US","","","","","","","","img/hatbox.png","1568223300724","","-1568222716941.695","leftTestButton","R","img/11.png,img/11.png","img/3.png,img/8.png"
"246","","","RMTStest","17","582106","0.0-17.0",13,"US","","","","","","","","img/hatbox.png","1568223303280","","-1568222717859.115","leftTestButton","R","img/5.png,img/5.png","img/10.png,img/4.png"
"247","","","RMTStest","18","583551","0.0-18.0",13,"US","","","","","","","","img/hatbox.png","1568223304918","","-1568222718052.75","rightTestButton","L","img/15.png,img/15.png","img/9.png,img/14.png"
"248","[{""page_index"":0,""viewing_time"":5205},{""page_index"":1,""viewing_time"":10264}]","15470","instructions","0","15470","0.0-0.0",14,"US","","","","","","","","","","","","","","",""
"249","","2328","audio-keyboard-response","1","19808","0.0-1.0",14,"US","sound/letter.wav","81","congruent","true","","","","","","","","","","",""
"250","","","RMTStrain","2","41458","0.0-2.0",14,"US","","","","","img/c.png","img/c.png","true","img/box.png","1568595911620","1568595933270","","","","",""
"251","","","RMTStrain","3","62331","0.0-3.0",14,"US","","","","","img/k.png","img/i.png","false","img/box.png","1568595933270","1568595954143","","","","",""
"252","","","RMTStrain","4","81670","0.0-4.0",14,"US","","","","","img/h.png","img/h.png","true","img/box.png","1568595954143","1568595973482","","","","",""
"253","","","RMTStrain","5","102085","0.0-5.0",14,"US","","","","","img/g.png","img/o.png","false","img/box.png","1568595973482","1568595993897","","","","",""
"254","[{""page_index"":0,""viewing_time"":6165}]","6166","instructions","6","108251","0.0-6.0",14,"US","","","","","","","","","","","","","","",""
"255","","","RMTStest","7","117237","0.0-7.0",14,"US","","","","","","","","img/box.png","1568596002064","","-1568595882240.335","leftTestButton","L","img/b.png,img/b.png","img/f.png,img/e.png"
"256","","","RMTStest","8","118981","0.0-8.0",14,"US","","","","","","","","img/box.png","1568596009049","","-1568595887481.63","rightTestButton","R","img/m.png,img/m.png","img/a.png,img/n.png"
"257","","","RMTStest","9","121192","0.0-9.0",14,"US","","","","","","","","img/box.png","1568596010793","","-1568595887013.685","rightTestButton","R","img/l.png,img/l.png","img/j.png,img/d.png"
"258","[{""page_index"":0,""viewing_time"":2542}]","2543","instructions","10","123735","0.0-10.0",14,"US","","","","","","","","","","","","","","",""
"259","","","RMTStrain","11","147906","0.0-11.0",14,"US","","","","","img/10.png","img/4.png","true","img/hatbox.png","1568596017547","1568596039718","","","","",""
"260","","","RMTStrain","12","173724","0.0-12.0",14,"US","","","","","img/9.png","img/9.png","false","img/hatbox.png","1568596039718","1568596065536","","","","",""
"261","","","RMTStrain","13","218885","0.0-13.0",14,"US","","","","","img/7.png","img/5.png","true","img/hatbox.png","1568596065536","1568596110697","","","","",""
"262","","","RMTStrain","14","238263","0.0-14.0",14,"US","","","","","img/1.png","img/1.png","false","img/hatbox.png","1568596110697","1568596130075","","","","",""
"263","[{""page_index"":0,""viewing_time"":4926}]","4926","instructions","15","243189","0.0-15.0",14,"US","","","","","","","","","","","","","","",""
"264","","","RMTStest","16","246275","0.0-16.0",14,"US","","","","","","","","img/hatbox.png","1568596137003","","-1568595888141.34","rightTestButton","L","img/14.png,img/14.png","img/11.png,img/15.png"
"265","","","RMTStest","17","247993","0.0-17.0",14,"US","","","","","","","","img/hatbox.png","1568596138087","","-1568595887507.385","rightTestButton","L","img/8.png,img/8.png","img/13.png,img/6.png"
"266","","","RMTStest","18","249063","0.0-18.0",14,"US","","","","","","","","img/hatbox.png","1568596139805","","-1568595888155.185","leftTestButton","R","img/12.png,img/12.png","img/2.png,img/3.png"
"267","[{""page_index"":0,""viewing_time"":4218},{""page_index"":1,""viewing_time"":8795}]","13015","instructions","0","13017","0.0-0.0",15,"US","","","","","","","","","","","","","","",""
"268","","2345","audio-keyboard-response","1","17388","0.0-1.0",15,"US","sound/letter.wav","81","congruent","true","","","","","","","","","","",""
"269","","","RMTStrain","2","44659","0.0-2.0",15,"US","","","","","img/6.png","img/6.png","true","img/box.png","1568313322498","1568313349766","","","","",""
"270","","","RMTStrain","3","63813","0.0-3.0",15,"US","","","","","img/11.png","img/1.png","false","img/box.png","1568313349767","1568313368921","","","","",""
"271","","","RMTStrain","4","81778","0.0-4.0",15,"US","","","","","img/7.png","img/7.png","true","img/box.png","1568313368922","1568313386886","","","","",""
"272","","","RMTStrain","5","102189","0.0-5.0",15,"US","","","","","img/13.png","img/12.png","false","img/box.png","1568313386887","1568313407297","","","","",""
"273","[{""page_index"":0,""viewing_time"":5195}]","5195","instructions","6","107384","0.0-6.0",15,"US","","","","","","","","","","","","","","",""
"274","","","RMTStest","7","113634","0.0-7.0",15,"US","","","","","","","","img/box.png","1568313414494","","-1568313297029.32","leftTestButton","L","img/5.png,img/5.png","img/14.png,img/2.png"
"275","","","RMTStest","8","116045","0.0-8.0",15,"US","","","","","","","","img/box.png","1568313418743","","-1568313298867.285","rightTestButton","R","img/4.png,img/4.png","img/8.png,img/15.png"
"276","","","RMTStest","9","117337","0.0-9.0",15,"US","","","","","","","","img/box.png","1568313421153","","-1568313299985.96","rightTestButton","R","img/10.png,img/10.png","img/9.png,img/3.png"
"277","[{""page_index"":0,""viewing_time"":2459}]","2460","instructions","10","119797","0.0-10.0",15,"US","","","","","","","","","","","","","","",""
"278","","","RMTStrain","11","141326","0.0-11.0",15,"US","","","","","img/h.png","img/n.png","true","img/hatbox.png","1568313426906","1568313446434","","","","",""
"279","","","RMTStrain","12","162097","0.0-12.0",15,"US","","","","","img/j.png","img/j.png","false","img/hatbox.png","1568313446435","1568313467205","","","","",""
"280","","","RMTStrain","13","180691","0.0-13.0",15,"US","","","","","img/g.png","img/o.png","true","img/hatbox.png","1568313467205","1568313485799","","","","",""
"281","","","RMTStrain","14","198543","0.0-14.0",15,"US","","","","","img/k.png","img/k.png","false","img/hatbox.png","1568313485799","1568313503651","","","","",""
"282","[{""page_index"":0,""viewing_time"":8923}]","8923","instructions","15","207466","0.0-15.0",15,"US","","","","","","","","","","","","","","",""
"283","","","RMTStest","16","211391","0.0-16.0",15,"US","","","","","","","","img/hatbox.png","1568313514576","","-1568313299354.48","rightTestButton","L","img/a.png,img/a.png","img/c.png,img/b.png"
"284","","","RMTStest","17","213319","0.0-17.0",15,"US","","","","","","","","img/hatbox.png","1568313516499","","-1568313299349.69","leftTestButton","L","img/i.png,img/i.png","img/d.png,img/m.png"
"285","","","RMTStest","18","214598","0.0-18.0",15,"US","","","","","","","","img/hatbox.png","1568313518427","","-1568313299998.89","leftTestButton","R","img/f.png,img/f.png","img/e.png,img/l.png"
"286","[{""page_index"":0,""viewing_time"":3854},{""page_index"":1,""viewing_time"":1101}]","4955","instructions","0","4959","0.0-0.0",16,"US","","","","","","","","","","","","","","",""
"287","","2571","audio-keyboard-response","1","9628","0.0-1.0",16,"US","sound/letter.wav","81","congruent","true","","","","","","","","","","",""
"288","","","RMTStrain","2","31335","0.0-2.0",16,"US","","","","","img/2.png","img/14.png","true","img/box.png","1565385628649","1565385650349","","","","",""
"289","","","RMTStrain","3","53331","0.0-3.0",16,"US","","","","","img/10.png","img/10.png","false","img/box.png","1565385650349","1565385672345","","","","",""
"290","","","RMTStrain","4","75212","0.0-4.0",16,"US","","","","","img/3.png","img/11.png","true","img/box.png","1565385672345","1565385694226","","","","",""
"291","","","RMTStrain","5","96749","0.0-5.0",16,"US","","","","","img/1.png","img/1.png","false","img/box.png","1565385694226","1565385715763","","","","",""
"292","[{""page_index"":0,""viewing_time"":11983}]","11984","instructions","6","108733","0.0-6.0",16,"US","","","","","","","","","","","","","","",""
"293","","","RMTStest","7","115753","0.0-7.0",16,"US","","","","","","","","img/box.png","1565385729749","","-1565385612823.15","rightTestButton","R","img/8.png,img/8.png","img/15.png,img/13.png"
"294","","","RMTStest","8","117599","0.0-8.0",16,"US","","","","","","","","img/box.png","1565385734767","","-1565385615994.255","leftTestButton","L","img/6.png,img/6.png","img/7.png,img/4.png"
"295","","","RMTStest","9","118859","0.0-9.0",16,"US","","","","","","","","img/box.png","1565385736614","","-1565385616581.43","rightTestButton","L","img/12.png,img/12.png","img/9.png,img/5.png"
"296","[{""page_index"":0,""viewing_time"":26160}]","26161","instructions","10","145021","0.0-10.0",16,"US","","","","","","","","","","","","","","",""
"297","","","RMTStrain","11","166666","0.0-11.0",16,"US","","","","","img/d.png","img/d.png","true","img/hatbox.png","1565385766037","1565385785679","","","","",""
"298","","","RMTStrain","12","184496","0.0-12.0",16,"US","","","","","img/h.png","img/c.png","false","img/hatbox.png","1565385785680","1565385803510","","","","",""
"299","","","RMTStrain","13","207736","0.0-13.0",16,"US","","","","","img/b.png","img/b.png","true","img/hatbox.png","1565385803511","1565385826750","","","","",""
"300","","","RMTStrain","14","238211","0.0-14.0",16,"US","","","","","img/e.png","img/k.png","false","img/hatbox.png","1565385826750","1565385857225","","","","",""
"301","[{""page_index"":0,""viewing_time"":38210}]","38210","instructions","15","276422","0.0-15.0",16,"US","","","","","","","","","","","","","","",""
"302","","","RMTStest","16","280413","0.0-16.0",16,"US","","","","","","","","img/hatbox.png","1565385897437","","-1565385615876.415","rightTestButton","L","img/j.png,img/j.png","img/m.png,img/f.png"
"303","","","RMTStest","17","282243","0.0-17.0",16,"US","","","","","","","","img/hatbox.png","1565385899427","","-1565385616036.385","leftTestButton","R","img/g.png,img/g.png","img/o.png,img/i.png"
"304","","","RMTStest","18","284199","0.0-18.0",16,"US","","","","","","","","img/hatbox.png","1565385901257","","-1565385615910.125","rightTestButton","R","img/l.png,img/l.png","img/a.png,img/n.png"
"305","[{""page_index"":0,""viewing_time"":6247},{""page_index"":1,""viewing_time"":30646}]","36895","instructions","0","36903","0.0-0.0",17,"US","","","","","","","","","","","","","","",""
"306","","2891","audio-keyboard-response","1","41809","0.0-1.0",17,"US","sound/letter.wav","81","congruent","true","","","","","","","","","","",""
"307","","","RMTStrain","2","61905","0.0-2.0",17,"US","","","","","img/h.png","img/h.png","true","img/box.png","1568595130414","1568595150509","","","","",""
"308","","","RMTStrain","3","86501","0.0-3.0",17,"US","","","","","img/b.png","img/c.png","false","img/box.png","1568595150509","1568595175105","","","","",""
"309","","","RMTStrain","4","115445","0.0-4.0",17,"US","","","","","img/m.png","img/m.png","true","img/box.png","1568595175106","1568595204049","","","","",""
"310","","","RMTStrain","5","134408","0.0-5.0",17,"US","","","","","img/e.png","img/g.png","false","img/box.png","1568595204049","1568595223012","","","","",""
"311","[{""page_index"":0,""viewing_time"":9314}]","9315","instructions","6","143723","0.0-6.0",17,"US","","","","","","","","","","","","","","",""
"312","","","RMTStest","7","148755","0.0-7.0",17,"US","","","","","","","","img/box.png","1568595234328","","-1568595077560.58","rightTestButton","L","img/d.png,img/d.png","img/l.png,img/j.png"
"313","","","RMTStest","8","151380","0.0-8.0",17,"US","","","","","","","","img/box.png","1568595237359","","-1568595077966.395","rightTestButton","L","img/a.png,img/a.png","img/n.png,img/f.png"
"314","","","RMTStest","9","153692","0.0-9.0",17,"US","","","","","","","","img/box.png","1568595239984","","-1568595078279.48","leftTestButton","R","img/o.png,img/o.png","img/i.png,img/k.png"
"315","[{""page_index"":0,""viewing_time"":8400}]","8400","instructions","10","162092","0.0-10.0",17,"US","","","","","","","","","","","","","","",""
"316","","","RMTStrain","11","183230","0.0-11.0",17,"US","","","","","img/8.png","img/2.png","true","img/hatbox.png","1568595252697","1568595271834","","","","",""
"317","","","RMTStrain","12","201464","0.0-12.0",17,"US","","","","","img/9.png","img/9.png","false","img/hatbox.png","1568595271834","1568595290068","","","","",""
"318","","","RMTStrain","13","219910","0.0-13.0",17,"US","","","","","img/14.png","img/5.png","true","img/hatbox.png","1568595290068","1568595308514","","","","",""
"319","","","RMTStrain","14","237814","0.0-14.0",17,"US","","","","","img/12.png","img/12.png","false","img/hatbox.png","1568595308514","1568595326418","","","","",""
"320","[{""page_index"":0,""viewing_time"":2844}]","2844","instructions","15","240658","0.0-15.0",17,"US","","","","","","","","","","","","","","",""
"321","","","RMTStest","16","244738","0.0-16.0",17,"US","","","","","","","","img/hatbox.png","1568595331264","","-1568595078513.355","leftTestButton","R","img/15.png,img/15.png","img/1.png,img/6.png"
"322","","","RMTStest","17","246412","0.0-17.0",17,"US","","","","","","","","img/hatbox.png","1568595333342","","-1568595078917.53","rightTestButton","L","img/10.png,img/10.png","img/7.png,img/13.png"
"323","","","RMTStest","18","247538","0.0-18.0",17,"US","","","","","","","","img/hatbox.png","1568595335016","","-1568595079465.465","leftTestButton","R","img/3.png,img/3.png","img/11.png,img/4.png"
"324","[{""page_index"":0,""viewing_time"":80884},{""page_index"":1,""viewing_time"":69240}]","150125","instructions","0","150128","0.0-0.0",18,"US","","","","","","","","","","","","","","",""
"325","","7861","audio-keyboard-response","1","160124","0.0-1.0",18,"US","sound/letter.wav","81","congruent","true","","","","","","","","","","",""
"326","","","RMTStrain","2","185544","0.0-2.0",18,"US","","","","","img/1.png","img/15.png","true","img/box.png","1565382089538","1565382114956","","","","",""
"327","","","RMTStrain","3","210110","0.0-3.0",18,"US","","","","","img/4.png","img/4.png","false","img/box.png","1565382114956","1565382139522","","","","",""
"328","","","RMTStrain","4","232475","0.0-4.0",18,"US","","","","","img/9.png","img/14.png","true","img/box.png","1565382139522","1565382161887","","","","",""
"329","","","RMTStrain","5","251444","0.0-5.0",18,"US","","","","","img/12.png","img/12.png","false","img/box.png","1565382161887","1565382180856","","","","",""
"330","[{""page_index"":0,""viewing_time"":11370}]","11370","instructions","6","262814","0.0-6.0",18,"US","","","","","","","","","","","","","","",""
"331","","","RMTStest","7","272558","0.0-7.0",18,"US","","","","","","","","img/box.png","1565382194228","","-1565381919890.345","leftTestButton","R","img/2.png,img/2.png","img/6.png,img/5.png"
"332","","","RMTStest","8","275910","0.0-8.0",18,"US","","","","","","","","img/box.png","1565382201970","","-1565381924280.725","leftTestButton","R","img/7.png,img/7.png","img/3.png,img/11.png"
"333","","","RMTStest","9","278422","0.0-9.0",18,"US","","","","","","","","img/box.png","1565382205322","","-1565381925120.655","rightTestButton","L","img/8.png,img/8.png","img/10.png,img/13.png"
"334","[{""page_index"":0,""viewing_time"":11456}]","11456","instructions","10","289878","0.0-10.0",18,"US","","","","","","","","","","","","","","",""
"335","","","RMTStrain","11","314915","0.0-11.0",18,"US","","","","","img/a.png","img/a.png","true","img/hatbox.png","1565382221291","1565382244327","","","","",""
"336","","","RMTStrain","12","335435","0.0-12.0",18,"US","","","","","img/f.png","img/l.png","false","img/hatbox.png","1565382244328","1565382264847","","","","",""
"337","","","RMTStrain","13","357149","0.0-13.0",18,"US","","","","","img/d.png","img/d.png","true","img/hatbox.png","1565382264847","1565382286561","","","","",""
"338","","","RMTStrain","14","376002","0.0-14.0",18,"US","","","","","img/j.png","img/i.png","false","img/hatbox.png","1565382286561","1565382305414","","","","",""
"339","[{""page_index"":0,""viewing_time"":5659}]","5659","instructions","15","381662","0.0-15.0",18,"US","","","","","","","","","","","","","","",""
"340","","","RMTStest","16","388990","0.0-16.0",18,"US","","","","","","","","img/hatbox.png","1565382313076","","-1565381922306.865","leftTestButton","L","img/k.png,img/k.png","img/h.png,img/g.png"
"341","","","RMTStest","17","390710","0.0-17.0",18,"US","","","","","","","","img/hatbox.png","1565382318402","","-1565381925912.91","rightTestButton","R","img/b.png,img/b.png","img/c.png,img/o.png"
"342","","","RMTStest","18","392278","0.0-18.0",18,"US","","","","","","","","img/hatbox.png","1565382320122","","-1565381926064.91","leftTestButton","L","img/e.png,img/e.png","img/m.png,img/n.png"
"343","[{""page_index"":0,""viewing_time"":12619},{""page_index"":1,""viewing_time"":21113}]","33734","instructions","0","33737","0.0-0.0",19,"US","","","","","","","","","","","","","","",""
"344","","2723","audio-keyboard-response","1","38519","0.0-1.0",19,"US","sound/letter.wav","81","congruent","true","","","","","","","","","","",""
"345","","","RMTStrain","2","63698","0.0-2.0",19,"US","","","","","img/2.png","img/2.png","true","img/box.png","1565385517656","1565385542832","","","","",""
"346","","","RMTStrain","3","86207","0.0-3.0",19,"US","","","","","img/13.png","img/10.png","false","img/box.png","1565385542832","1565385565341","","","","",""
"347","","","RMTStrain","4","109604","0.0-4.0",19,"US","","","","","img/12.png","img/12.png","true","img/box.png","1565385565342","1565385588738","","","","",""
"348","","","RMTStrain","5","133257","0.0-5.0",19,"US","","","","","img/3.png","img/15.png","false","img/box.png","1565385588739","1565385612391","","","","",""
"349","[{""page_index"":0,""viewing_time"":10994}]","10995","instructions","6","144253","0.0-6.0",19,"US","","","","","","","","","","","","","","",""
"350","","","RMTStest","7","148952","0.0-7.0",19,"US","","","","","","","","img/box.png","1565385625390","","-1565385440462.015","leftTestButton","L","img/1.png,img/1.png","img/8.png,img/14.png"
"351","","","RMTStest","8","150536","0.0-8.0",19,"US","","","","","","","","img/box.png","1565385628086","","-1565385441574.51","rightTestButton","R","img/9.png,img/9.png","img/5.png,img/6.png"
"352","","","RMTStest","9","152639","0.0-9.0",19,"US","","","","","","","","img/box.png","1565385629670","","-1565385441055.32","rightTestButton","R","img/4.png,img/4.png","img/11.png,img/7.png"
"353","[{""page_index"":0,""viewing_time"":8060}]","8061","instructions","10","160700","0.0-10.0",19,"US","","","","","","","","","","","","","","",""
"354","","","RMTStrain","11","183139","0.0-11.0",19,"US","","","","","img/c.png","img/d.png","true","img/hatbox.png","1565385641835","1565385662273","","","","",""
"355","","","RMTStrain","12","203425","0.0-12.0",19,"US","","","","","img/o.png","img/o.png","false","img/hatbox.png","1565385662274","1565385682558","","","","",""
"356","","","RMTStrain","13","221914","0.0-13.0",19,"US","","","","","img/l.png","img/m.png","true","img/hatbox.png","1565385682559","1565385701047","","","","",""
"357","","","RMTStrain","14","240879","0.0-14.0",19,"US","","","","","img/a.png","img/a.png","false","img/hatbox.png","1565385701048","1565385720013","","","","",""
"358","[{""page_index"":0,""viewing_time"":4239}]","4239","instructions","15","245118","0.0-15.0",19,"US","","","","","","","","","","","","","","",""
"359","","","RMTStest","16","248581","0.0-16.0",19,"US","","","","","","","","img/hatbox.png","1565385726254","","-1565385441697.095","rightTestButton","L","img/g.png,img/g.png","img/h.png,img/k.png"
"360","","","RMTStest","17","249726","0.0-17.0",19,"US","","","","","","","","img/hatbox.png","1565385727715","","-1565385442013.295","leftTestButton","R","img/j.png,img/j.png","img/b.png,img/e.png"
"361","","","RMTStest","18","251579","0.0-18.0",19,"US","","","","","","","","img/hatbox.png","1565385728860","","-1565385441304.865","rightTestButton","L","img/f.png,img/f.png","img/i.png,img/n.png"
"362","[{""page_index"":0,""viewing_time"":20861},{""page_index"":1,""viewing_time"":39018}]","59880","instructions","0","59891","0.0-0.0",20,"US","","","","","","","","","","","","","","",""
"363","","3680","audio-keyboard-response","1","66046","0.0-1.0",20,"US","sound/letter.wav","81","congruent","true","","","","","","","","","","",""
"364","","","RMTStrain","2","116987","0.0-2.0",20,"US","","","","","img/g.png","img/g.png","true","img/box.png","1568224676956","1568224727894","","","","",""
"365","","","RMTStrain","3","156431","0.0-3.0",20,"US","","","","","img/i.png","img/f.png","false","img/box.png","1568224727895","1568224767338","","","","",""
"366","","","RMTStrain","4","179716","0.0-4.0",20,"US","","","","","img/m.png","img/m.png","true","img/box.png","1568224767339","1568224790623","","","","",""
"367","","","RMTStrain","5","198948","0.0-5.0",20,"US","","","","","img/n.png","img/j.png","false","img/box.png","1568224790624","1568224809855","","","","",""
"368","[{""page_index"":0,""viewing_time"":17035}]","17036","instructions","6","215985","0.0-6.0",20,"US","","","","","","","","","","","","","","",""
"369","","","RMTStest","7","224845","0.0-7.0",20,"US","","","","","","","","img/box.png","1568224828894","","-1568224599732.795","rightTestButton","R","img/e.png,img/e.png","img/h.png,img/o.png"
"370","","","RMTStest","8","226805","0.0-8.0",20,"US","","","","","","","","img/box.png","1568224835753","","-1568224604631.62","leftTestButton","L","img/b.png,img/b.png","img/d.png,img/a.png"
"371","","","RMTStest","9","228320","0.0-9.0",20,"US","","","","","","","","img/box.png","1568224837712","","-1568224605074.94","rightTestButton","R","img/k.png,img/k.png","img/l.png,img/c.png"
"372","[{""page_index"":0,""viewing_time"":8859}]","8859","instructions","10","237181","0.0-10.0",20,"US","","","","","","","","","","","","","","",""
"373","","","RMTStrain","11","262613","0.0-11.0",20,"US","","","","","img/11.png","img/2.png","true","img/hatbox.png","1568224850090","1568224873520","","","","",""
"374","","","RMTStrain","12","281590","0.0-12.0",20,"US","","","","","img/3.png","img/3.png","false","img/hatbox.png","1568224873521","1568224892497","","","","",""
"375","","","RMTStrain","13","301851","0.0-13.0",20,"US","","","","","img/4.png","img/6.png","true","img/hatbox.png","1568224892497","1568224912758","","","","",""
"376","","","RMTStrain","14","321340","0.0-14.0",20,"US","","","","","img/15.png","img/15.png","false","img/hatbox.png","1568224912759","1568224932246","","","","",""
"377","[{""page_index"":0,""viewing_time"":5831}]","5832","instructions","15","327172","0.0-15.0",20,"US","","","","","","","","","","","","","","",""
"378","","","RMTStest","16","332878","0.0-16.0",20,"US","","","","","","","","img/hatbox.png","1568224940080","","-1568224602885.8","rightTestButton","L","img/8.png,img/8.png","img/5.png,img/14.png"
"379","","","RMTStest","17","336937","0.0-17.0",20,"US","","","","","","","","img/hatbox.png","1568224943785","","-1568224602530.915","rightTestButton","L","img/9.png,img/9.png","img/12.png,img/1.png"
"380","","","RMTStest","18","340008","0.0-18.0",20,"US","","","","","","","","img/hatbox.png","1568224947845","","-1568224603520.435","leftTestButton","R","img/10.png,img/10.png","img/13.png,img/7.png"
"381","[{""page_index"":0,""viewing_time"":1017},{""page_index"":1,""viewing_time"":1041}]","2058","instructions","0","2059","0.0-0.0",21,"US","","","","","","","","","","","","","","",""
"382","","4110","audio-keyboard-response","1","8163","0.0-1.0",21,"US","sound/letter.wav","81","congruent","true","","","","","","","","","","",""
"383","","","RMTStrain","2","32048","0.0-2.0",21,"US","","","","","img/4.png","img/4.png","true","img/box.png","1568313263930","1568313287815","","","","",""
"384","","","RMTStrain","3","53885","0.0-3.0",21,"US","","","","","img/8.png","img/15.png","false","img/box.png","1568313287815","1568313309652","","","","",""
"385","","","RMTStrain","4","86267","0.0-4.0",21,"US","","","","","img/12.png","img/12.png","true","img/box.png","1568313309652","1568313342034","","","","",""
"386","","","RMTStrain","5","105192","0.0-5.0",21,"US","","","","","img/3.png","img/14.png","false","img/box.png","1568313342034","1568313360959","","","","",""
"387","[{""page_index"":0,""viewing_time"":3660}]","3660","instructions","6","108852","0.0-6.0",21,"US","","","","","","","","","","","","","","",""
"388","","","RMTStest","7","114076","0.0-7.0",21,"US","","","","","","","","img/box.png","1568313366620","","-1568313251823.565","leftTestButton","L","img/13.png,img/13.png","img/10.png,img/11.png"
"389","","","RMTStest","8","115284","0.0-8.0",21,"US","","","","","","","","img/box.png","1568313369843","","-1568313253838.615","leftTestButton","L","img/6.png,img/6.png","img/7.png,img/1.png"
"390","","","RMTStest","9","116910","0.0-9.0",21,"US","","","","","","","","img/box.png","1568313371051","","-1568313253420.2","rightTestButton","R","img/9.png,img/9.png","img/2.png,img/5.png"
"391","[{""page_index"":0,""viewing_time"":1601}]","1602","instructions","10","118512","0.0-10.0",21,"US","","","","","","","","","","","","","","",""
"392","","","RMTStrain","11","139883","0.0-11.0",21,"US","","","","","img/m.png","img/f.png","true","img/hatbox.png","1568313376280","1568313395650","","","","",""
"393","","","RMTStrain","12","159394","0.0-12.0",21,"US","","","","","img/j.png","img/j.png","false","img/hatbox.png","1568313395650","1568313415161","","","","",""
"394","","","RMTStrain","13","184312","0.0-13.0",21,"US","","","","","img/a.png","img/g.png","true","img/hatbox.png","1568313415161","1568313440079","","","","",""
"395","","","RMTStrain","14","204198","0.0-14.0",21,"US","","","","","img/l.png","img/l.png","false","img/hatbox.png","1568313440079","1568313459965","","","","",""
"396","[{""page_index"":0,""viewing_time"":1703}]","1703","instructions","15","205901","0.0-15.0",21,"US","","","","","","","","","","","","","","",""
"397","","","RMTStest","16","209244","0.0-16.0",21,"US","","","","","","","","img/hatbox.png","1568313463669","","-1568313253703.41","leftTestButton","R","img/o.png,img/o.png","img/n.png,img/i.png"
"398","","","RMTStest","17","210731","0.0-17.0",21,"US","","","","","","","","img/hatbox.png","1568313465012","","-1568313253560.2","rightTestButton","L","img/b.png,img/b.png","img/d.png,img/e.png"
"399","","","RMTStest","18","212094","0.0-18.0",21,"US","","","","","","","","img/hatbox.png","1568313466498","","-1568313253682.42","leftTestButton","R","img/h.png,img/h.png","img/c.png,img/k.png"
"400","[{""page_index"":0,""viewing_time"":1435},{""page_index"":1,""viewing_time"":6032}]","7468","instructions","0","7471","0.0-0.0",22,"US","","","","","","","","","","","","","","",""
"401","","1971","audio-keyboard-response","1","11439","0.0-1.0",22,"US","sound/letter.wav","81","congruent","true","","","","","","","","","","",""
"402","","","RMTStrain","2","33367","0.0-2.0",22,"US","","","","","img/1.png","img/6.png","true","img/box.png","1568314767357","1568314789283","","","","",""
"403","","","RMTStrain","3","52780","0.0-3.0",22,"US","","","","","img/15.png","img/15.png","false","img/box.png","1568314789283","1568314808696","","","","",""
"404","","","RMTStrain","4","71958","0.0-4.0",22,"US","","","","","img/3.png","img/13.png","true","img/box.png","1568314808696","1568314827874","","","","",""
"405","","","RMTStrain","5","91449","0.0-5.0",22,"US","","","","","img/2.png","img/2.png","false","img/box.png","1568314827874","1568314847365","","","","",""
"406","[{""page_index"":0,""viewing_time"":9105}]","9105","instructions","6","100555","0.0-6.0",22,"US","","","","","","","","","","","","","","",""
"407","","","RMTStest","7","104672","0.0-7.0",22,"US","","","","","","","","img/box.png","1568314858474","","-1568314752628.41","rightTestButton","L","img/10.png,img/10.png","img/9.png,img/4.png"
"408","","","RMTStest","8","106013","0.0-8.0",22,"US","","","","","","","","img/box.png","1568314860588","","-1568314753400.95","leftTestButton","R","img/7.png,img/7.png","img/5.png,img/11.png"
"409","","","RMTStest","9","107134","0.0-9.0",22,"US","","","","","","","","img/box.png","1568314861929","","-1568314753620.04","rightTestButton","L","img/8.png,img/8.png","img/14.png,img/12.png"
"410","[{""page_index"":0,""viewing_time"":5465}]","5466","instructions","10","112601","0.0-10.0",22,"US","","","","","","","","","","","","","","",""
"411","","","RMTStrain","11","133570","0.0-11.0",22,"US","","","","","img/a.png","img/a.png","true","img/hatbox.png","1568314870519","1568314889485","","","","",""
"412","","","RMTStrain","12","153131","0.0-12.0",22,"US","","","","","img/k.png","img/o.png","false","img/hatbox.png","1568314889486","1568314909047","","","","",""
"413","","","RMTStrain","13","171537","0.0-13.0",22,"US","","","","","img/b.png","img/b.png","true","img/hatbox.png","1568314909047","1568314927452","","","","",""
"414","","","RMTStrain","14","190699","0.0-14.0",22,"US","","","","","img/j.png","img/l.png","false","img/hatbox.png","1568314927454","1568314946615","","","","",""
"415","[{""page_index"":0,""viewing_time"":1544}]","1544","instructions","15","192243","0.0-15.0",22,"US","","","","","","","","","","","","","","",""
"416","","","RMTStest","16","195353","0.0-16.0",22,"US","","","","","","","","img/hatbox.png","1568314950160","","-1568314753632.24","leftTestButton","L","img/n.png,img/n.png","img/i.png,img/c.png"
"417","","","RMTStest","17","198477","0.0-17.0",22,"US","","","","","","","","img/hatbox.png","1568314951269","","-1568314751617.12","rightTestButton","R","img/g.png,img/g.png","img/m.png,img/e.png"
"418","","","RMTStest","18","200613","0.0-18.0",22,"US","","","","","","","","img/hatbox.png","1568314954393","","-1568314752605.22","rightTestButton","R","img/d.png,img/d.png","img/f.png,img/h.png"
"419","[{""page_index"":0,""viewing_time"":8526},{""page_index"":1,""viewing_time"":284097}]","292624","instructions","0","292625","0.0-0.0",23,"US","","","","","","","","","","","","","","",""
"420","","3141","audio-keyboard-response","1","297986","0.0-1.0",23,"US","sound/letter.wav","81","congruent","true","","","","","","","","","","",""
"421","","","RMTStrain","2","319626","0.0-2.0",23,"US","","","","","img/n.png","img/i.png","true","img/box.png","1568224097305","1568224118942","","","","",""
"422","","","RMTStrain","3","343277","0.0-3.0",23,"US","","","","","img/k.png","img/k.png","false","img/box.png","1568224118943","1568224142594","","","","",""
"423","","","RMTStrain","4","362747","0.0-4.0",23,"US","","","","","img/a.png","img/e.png","true","img/box.png","1568224142595","1568224162064","","","","",""
"424","","","RMTStrain","5","384214","0.0-5.0",23,"US","","","","","img/c.png","img/c.png","false","img/box.png","1568224162065","1568224183531","","","","",""
"425","[{""page_index"":0,""viewing_time"":29079}]","29079","instructions","6","413293","0.0-6.0",23,"US","","","","","","","","","","","","","","",""
"426","","","RMTStest","7","417389","0.0-7.0",23,"US","","","","","","","","img/box.png","1568224214612","","-1568223796295.96","rightTestButton","L","img/d.png,img/d.png","img/o.png,img/b.png"
"427","","","RMTStest","8","418549","0.0-8.0",23,"US","","","","","","","","img/box.png","1568224216706","","-1568223797230.31","leftTestButton","R","img/l.png,img/l.png","img/f.png,img/g.png"
"428","","","RMTStest","9","419565","0.0-9.0",23,"US","","","","","","","","img/box.png","1568224217866","","-1568223797374.5","rightTestButton","L","img/h.png,img/h.png","img/j.png,img/m.png"
"429","[{""page_index"":0,""viewing_time"":2864}]","2864","instructions","10","422429","0.0-10.0",23,"US","","","","","","","","","","","","","","",""
"430","","","RMTStrain","11","443453","0.0-11.0",23,"US","","","","","img/10.png","img/10.png","true","img/hatbox.png","1568224223747","1568224242770","","","","",""
"431","","","RMTStrain","12","467211","0.0-12.0",23,"US","","","","","img/15.png","img/14.png","false","img/hatbox.png","1568224242770","1568224266528","","","","",""
"432","","","RMTStrain","13","522745","0.0-13.0",23,"US","","","","","img/9.png","img/9.png","true","img/hatbox.png","1568224266529","1568224322062","","","","",""
"433","","","RMTStrain","14","543017","0.0-14.0",23,"US","","","","","img/2.png","img/1.png","false","img/hatbox.png","1568224322062","1568224342334","","","","",""
"434","[{""page_index"":0,""viewing_time"":1849}]","1849","instructions","15","544866","0.0-15.0",23,"US","","","","","","","","","","","","","","",""
"435","","","RMTStest","16","547978","0.0-16.0",23,"US","","","","","","","","img/hatbox.png","1568224346184","","-1568223797276.445","rightTestButton","R","img/6.png,img/6.png","img/13.png,img/4.png"
"436","","","RMTStest","17","549418","0.0-17.0",23,"US","","","","","","","","img/hatbox.png","1568224347295","","-1568223796947.425","leftTestButton","L","img/12.png,img/12.png","img/3.png,img/7.png"
"437","","","RMTStest","18","550658","0.0-18.0",23,"US","","","","","","","","img/hatbox.png","1568224348735","","-1568223797147.45","rightTestButton","R","img/8.png,img/8.png","img/11.png,img/5.png"
"438","[{""page_index"":0,""viewing_time"":1446},{""page_index"":1,""viewing_time"":2503}]","3950","instructions","0","3951","0.0-0.0",24,"US","","","","","","","","","","","","","","",""
"439","","821","audio-keyboard-response","1","6812","0.0-1.0",24,"US","sound/letter.wav","81","congruent","true","","","","","","","","","","",""
"440","","","RMTStrain","2","35838","0.0-2.0",24,"US","","","","","img/d.png","img/i.png","true","img/box.png","1568314106683","1568314135706","","","","",""
"441","","","RMTStrain","3","58573","0.0-3.0",24,"US","","","","","img/a.png","img/a.png","false","img/box.png","1568314135707","1568314158442","","","","",""
"442","","","RMTStrain","4","78704","0.0-4.0",24,"US","","","","","img/k.png","img/h.png","true","img/box.png","1568314158442","1568314178572","","","","",""
"443","","","RMTStrain","5","99923","0.0-5.0",24,"US","","","","","img/l.png","img/l.png","false","img/box.png","1568314178573","1568314199792","","","","",""
"444","[{""page_index"":0,""viewing_time"":14288}]","14288","instructions","6","114211","0.0-6.0",24,"US","","","","","","","","","","","","","","",""
"445","","","RMTStest","7","118937","0.0-7.0",24,"US","","","","","","","","img/box.png","1568314216082","","-1568314095861.89","rightTestButton","L","img/b.png,img/b.png","img/j.png,img/e.png"
"446","","","RMTStest","8","121301","0.0-8.0",24,"US","","","","","","","","img/box.png","1568314218806","","-1568314096222.205","rightTestButton","L","img/n.png,img/n.png","img/g.png,img/o.png"
"447","","","RMTStest","9","123622","0.0-9.0",24,"US","","","","","","","","img/box.png","1568314221170","","-1568314096265.125","leftTestButton","R","img/m.png,img/m.png","img/c.png,img/f.png"
"448","[{""page_index"":0,""viewing_time"":17688}]","17688","instructions","10","141310","0.0-10.0",24,"US","","","","","","","","","","","","","","",""
"449","","","RMTStrain","11","166651","0.0-11.0",24,"US","","","","","img/13.png","img/13.png","true","img/hatbox.png","1568314243180","1568314266520","","","","",""
"450","","","RMTStrain","12","185915","0.0-12.0",24,"US","","","","","img/15.png","img/3.png","false","img/hatbox.png","1568314266520","1568314285784","","","","",""
"451","","","RMTStrain","13","205383","0.0-13.0",24,"US","","","","","img/4.png","img/4.png","true","img/hatbox.png","1568314285785","1568314305252","","","","",""
"452","","","RMTStrain","14","225519","0.0-14.0",24,"US","","","","","img/5.png","img/12.png","false","img/hatbox.png","1568314305252","1568314325388","","","","",""
"453","[{""page_index"":0,""viewing_time"":4717}]","4717","instructions","15","230237","0.0-15.0",24,"US","","","","","","","","","","","","","","",""
"454","","","RMTStest","16","234292","0.0-16.0",24,"US","","","","","","","","img/hatbox.png","1568314332108","","-1568314096533.72","rightTestButton","R","img/14.png,img/14.png","img/9.png,img/8.png"
"455","","","RMTStest","17","235432","0.0-17.0",24,"US","","","","","","","","img/hatbox.png","1568314334161","","-1568314097446.655","leftTestButton","L","img/7.png,img/7.png","img/11.png,img/10.png"
"456","","","RMTStest","18","236561","0.0-18.0",24,"US","","","","","","","","img/hatbox.png","1568314335301","","-1568314097457.655","rightTestButton","R","img/1.png,img/1.png","img/2.png,img/6.png"
"457","[{""page_index"":0,""viewing_time"":4237},{""page_index"":1,""viewing_time"":5762}]","9999","instructions","0","10000","0.0-0.0",25,"US","","","","","","","","","","","","","","",""
"458","","2789","audio-keyboard-response","1","14791","0.0-1.0",25,"US","sound/letter.wav","81","congruent","true","","","","","","","","","","",""
"459","","","RMTStrain","2","40551","0.0-2.0",25,"US","","","","","img/h.png","img/l.png","true","img/box.png","1568596542214","1568596567973","","","","",""
"460","","","RMTStrain","3","60110","0.0-3.0",25,"US","","","","","img/o.png","img/o.png","false","img/box.png","1568596567974","1568596587532","","","","",""
"461","","","RMTStrain","4","78818","0.0-4.0",25,"US","","","","","img/k.png","img/c.png","true","img/box.png","1568596587532","1568596606240","","","","",""
"462","","","RMTStrain","5","97436","0.0-5.0",25,"US","","","","","img/a.png","img/a.png","false","img/box.png","1568596606240","1568596624858","","","","",""
"463","[{""page_index"":0,""viewing_time"":1597}]","1598","instructions","6","99034","0.0-6.0",25,"US","","","","","","","","","","","","","","",""
"464","","","RMTStest","7","102704","0.0-7.0",25,"US","","","","","","","","img/box.png","1568596628457","","-1568596523104.235","rightTestButton","L","img/j.png,img/j.png","img/b.png,img/g.png"
"465","","","RMTStest","8","104099","0.0-8.0",25,"US","","","","","","","","img/box.png","1568596630126","","-1568596523377.625","leftTestButton","R","img/d.png,img/d.png","img/m.png,img/f.png"
"466","","","RMTStest","9","105189","0.0-9.0",25,"US","","","","","","","","img/box.png","1568596631521","","-1568596523682.79","leftTestButton","R","img/n.png,img/n.png","img/i.png,img/e.png"
"467","[{""page_index"":0,""viewing_time"":2165}]","2165","instructions","10","107354","0.0-10.0",25,"US","","","","","","","","","","","","","","",""
"468","","","RMTStrain","11","128093","0.0-11.0",25,"US","","","","","img/9.png","img/9.png","true","img/hatbox.png","1568596636778","1568596655515","","","","",""
"469","","","RMTStrain","12","146661","0.0-12.0",25,"US","","","","","img/5.png","img/10.png","false","img/hatbox.png","1568596655515","1568596674083","","","","",""
"470","","","RMTStrain","13","169277","0.0-13.0",25,"US","","","","","img/4.png","img/4.png","true","img/hatbox.png","1568596674083","1568596696699","","","","",""
"471","","","RMTStrain","14","187491","0.0-14.0",25,"US","","","","","img/13.png","img/3.png","false","img/hatbox.png","1568596696699","1568596714913","","","","",""
"472","[{""page_index"":0,""viewing_time"":5556}]","5556","instructions","15","193047","0.0-15.0",25,"US","","","","","","","","","","","","","","",""
"473","","","RMTStest","16","196199","0.0-16.0",25,"US","","","","","","","","img/hatbox.png","1568596722471","","-1568596523622.545","rightTestButton","R","img/15.png,img/15.png","img/6.png,img/2.png"
"474","","","RMTStest","17","197865","0.0-17.0",25,"US","","","","","","","","img/hatbox.png","1568596723621","","-1568596523106.73","leftTestButton","L","img/11.png,img/11.png","img/7.png,img/1.png"
"475","","","RMTStest","18","198899","0.0-18.0",25,"US","","","","","","","","img/hatbox.png","1568596725287","","-1568596523738.765","leftTestButton","L","img/12.png,img/12.png","img/8.png,img/14.png"
"476","[{""page_index"":0,""viewing_time"":2451},{""page_index"":1,""viewing_time"":1201}]","3653","instructions","0","3655","0.0-0.0",26,"US","","","","","","","","","","","","","","",""
"477","","7123","audio-keyboard-response","1","12785","0.0-1.0",26,"US","sound/letter.wav","81","congruent","true","","","","","","","","","","",""
"478","","","RMTStrain","2","37984","0.0-2.0",26,"US","","","","","img/12.png","img/12.png","true","img/box.png","1568316006245","1568316031443","","","","",""
"479","","","RMTStrain","3","62577","0.0-3.0",26,"US","","","","","img/5.png","img/7.png","false","img/box.png","1568316031443","1568316056036","","","","",""
"480","","","RMTStrain","4","81131","0.0-4.0",26,"US","","","","","img/9.png","img/9.png","true","img/box.png","1568316056036","1568316074590","","","","",""
"481","","","RMTStrain","5","99829","0.0-5.0",26,"US","","","","","img/4.png","img/6.png","false","img/box.png","1568316074590","1568316093288","","","","",""
"482","[{""page_index"":0,""viewing_time"":8579}]","8579","instructions","6","108410","0.0-6.0",26,"US","","","","","","","","","","","","","","",""
"483","","","RMTStest","7","115369","0.0-7.0",26,"US","","","","","","","","img/box.png","1568316103870","","-1568315985409.375","leftTestButton","L","img/1.png,img/1.png","img/15.png,img/3.png"
"484","","","RMTStest","8","117960","0.0-8.0",26,"US","","","","","","","","img/box.png","1568316108829","","-1568315987777.305","rightTestButton","R","img/2.png,img/2.png","img/10.png,img/13.png"
"485","","","RMTStest","9","119536","0.0-9.0",26,"US","","","","","","","","img/box.png","1568316111419","","-1568315988791.575","leftTestButton","L","img/11.png,img/11.png","img/14.png,img/8.png"
"486","[{""page_index"":0,""viewing_time"":1881}]","1882","instructions","10","121418","0.0-10.0",26,"US","","","","","","","","","","","","","","",""
"487","","","RMTStrain","11","142622","0.0-11.0",26,"US","","","","","img/i.png","img/d.png","true","img/hatbox.png","1568316116880","1568316136081","","","","",""
"488","","","RMTStrain","12","161312","0.0-12.0",26,"US","","","","","img/m.png","img/m.png","false","img/hatbox.png","1568316136081","1568316154771","","","","",""
"489","","","RMTStrain","13","180100","0.0-13.0",26,"US","","","","","img/h.png","img/g.png","true","img/hatbox.png","1568316154771","1568316173559","","","","",""
"490","","","RMTStrain","14","201430","0.0-14.0",26,"US","","","","","img/j.png","img/j.png","false","img/hatbox.png","1568316173560","1568316194889","","","","",""
"491","[{""page_index"":0,""viewing_time"":1445}]","1446","instructions","15","202877","0.0-15.0",26,"US","","","","","","","","","","","","","","",""
"492","","","RMTStest","16","207324","0.0-16.0",26,"US","","","","","","","","img/hatbox.png","1568316198342","","-1568315987929.35","leftTestButton","R","img/k.png,img/k.png","img/a.png,img/n.png"
"493","","","RMTStest","17","209084","0.0-17.0",26,"US","","","","","","","","img/hatbox.png","1568316200783","","-1568315988610.595","leftTestButton","R","img/b.png,img/b.png","img/c.png,img/e.png"
"494","","","RMTStest","18","211483","0.0-18.0",26,"US","","","","","","","","img/hatbox.png","1568316202543","","-1568315987971.335","rightTestButton","L","img/f.png,img/f.png","img/o.png,img/l.png"
"495","[{""page_index"":0,""viewing_time"":195359},{""page_index"":1,""viewing_time"":17137}]","212498","instructions","0","212499","0.0-0.0",27,"US","","","","","","","","","","","","","","",""
"496","","3814","audio-keyboard-response","1","218473","0.0-1.0",27,"US","sound/letter.wav","81","congruent","true","","","","","","","","","","",""
"497","","","RMTStrain","2","251539","0.0-2.0",27,"US","","","","","img/c.png","img/c.png","true","img/box.png","1568313462901","1568313495965","","","","",""
"498","","","RMTStrain","3","273216","0.0-3.0",27,"US","","","","","img/b.png","img/d.png","false","img/box.png","1568313495966","1568313517642","","","","",""
"499","","","RMTStrain","4","294144","0.0-4.0",27,"US","","","","","img/h.png","img/h.png","true","img/box.png","1568313517642","1568313538570","","","","",""
"500","","","RMTStrain","5","331477","0.0-5.0",27,"US","","","","","img/k.png","img/f.png","false","img/box.png","1568313538570","1568313575903","","","","",""
"501","[{""page_index"":0,""viewing_time"":5936}]","5937","instructions","6","337414","0.0-6.0",27,"US","","","","","","","","","","","","","","",""
"502","","","RMTStest","7","341281","0.0-7.0",27,"US","","","","","","","","img/box.png","1568313583844","","-1568313236010.995","rightTestButton","R","img/o.png,img/o.png","img/j.png,img/i.png"
"503","","","RMTStest","8","342320","0.0-8.0",27,"US","","","","","","","","img/box.png","1568313585707","","-1568313236834.56","rightTestButton","R","img/l.png,img/l.png","img/n.png,img/e.png"
"504","","","RMTStest","9","343703","0.0-9.0",27,"US","","","","","","","","img/box.png","1568313586746","","-1568313236490.35","leftTestButton","L","img/g.png,img/g.png","img/a.png,img/m.png"
"505","[{""page_index"":0,""viewing_time"":14729}]","14729","instructions","10","358432","0.0-10.0",27,"US","","","","","","","","","","","","","","",""
"506","","","RMTStrain","11","379607","0.0-11.0",27,"US","","","","","img/5.png","img/12.png","true","img/hatbox.png","1568313604859","1568313624033","","","","",""
"507","","","RMTStrain","12","401649","0.0-12.0",27,"US","","","","","img/1.png","img/1.png","false","img/hatbox.png","1568313624033","1568313646075","","","","",""
"508","","","RMTStrain","13","461403","0.0-13.0",27,"US","","","","","img/6.png","img/14.png","true","img/hatbox.png","1568313646075","1568313705829","","","","",""
"509","","","RMTStrain","14","480135","0.0-14.0",27,"US","","","","","img/8.png","img/8.png","false","img/hatbox.png","1568313705830","1568313724561","","","","",""
"510","[{""page_index"":0,""viewing_time"":1845}]","1845","instructions","15","481981","0.0-15.0",27,"US","","","","","","","","","","","","","","",""
"511","","","RMTStest","16","485099","0.0-16.0",27,"US","","","","","","","","img/hatbox.png","1568313728411","","-1568313236763.46","rightTestButton","L","img/9.png,img/9.png","img/7.png,img/3.png"
"512","","","RMTStest","17","486457","0.0-17.0",27,"US","","","","","","","","img/hatbox.png","1568313729525","","-1568313236519.265","leftTestButton","R","img/2.png,img/2.png","img/15.png,img/11.png"
"513","","","RMTStest","18","488873","0.0-18.0",27,"US","","","","","","","","img/hatbox.png","1568313730883","","-1568313235461.3","rightTestButton","L","img/13.png,img/13.png","img/10.png,img/4.png"
"514","[{""page_index"":0,""viewing_time"":6285},{""page_index"":1,""viewing_time"":18207}]","24493","instructions","0","24497","0.0-0.0",28,"US","","","","","","","","","","","","","","",""
"515","","4051","audio-keyboard-response","1","30675","0.0-1.0",28,"US","sound/letter.wav","81","congruent","true","","","","","","","","","","",""
"516","","","RMTStrain","2","50585","0.0-2.0",28,"US","","","","","img/3.png","img/3.png","true","img/box.png","1568597064947","1568597084855","","","","",""
"517","","","RMTStrain","3","70959","0.0-3.0",28,"US","","","","","img/10.png","img/12.png","false","img/box.png","1568597084856","1568597105230","","","","",""
"518","","","RMTStrain","4","89775","0.0-4.0",28,"US","","","","","img/8.png","img/8.png","true","img/box.png","1568597105230","1568597124046","","","","",""
"519","","","RMTStrain","5","108307","0.0-5.0",28,"US","","","","","img/1.png","img/4.png","false","img/box.png","1568597124046","1568597142578","","","","",""
"520","[{""page_index"":0,""viewing_time"":6026}]","6026","instructions","6","114333","0.0-6.0",28,"US","","","","","","","","","","","","","","",""
"521","","","RMTStest","7","120006","0.0-7.0",28,"US","","","","","","","","img/box.png","1568597150605","","-1568597029916.355","leftTestButton","L","img/9.png,img/9.png","img/11.png,img/7.png"
"522","","","RMTStest","8","121805","0.0-8.0",28,"US","","","","","","","","img/box.png","1568597154277","","-1568597031788.75","rightTestButton","R","img/2.png,img/2.png","img/13.png,img/15.png"
"523","","","RMTStest","9","123717","0.0-9.0",28,"US","","","","","","","","img/box.png","1568597156076","","-1568597031675.78","leftTestButton","L","img/5.png,img/5.png","img/14.png,img/6.png"
"524","[{""page_index"":0,""viewing_time"":3295}]","3295","instructions","10","127013","0.0-10.0",28,"US","","","","","","","","","","","","","","",""
"525","","","RMTStrain","11","148173","0.0-11.0",28,"US","","","","","img/n.png","img/o.png","true","img/hatbox.png","1568597163285","1568597182444","","","","",""
"526","","","RMTStrain","12","166388","0.0-12.0",28,"US","","","","","img/l.png","img/l.png","false","img/hatbox.png","1568597182445","1568597200659","","","","",""
"527","","","RMTStrain","13","184612","0.0-13.0",28,"US","","","","","img/j.png","img/a.png","true","img/hatbox.png","1568597200659","1568597218882","","","","",""
"528","","","RMTStrain","14","202836","0.0-14.0",28,"US","","","","","img/i.png","img/i.png","false","img/hatbox.png","1568597218883","1568597237107","","","","",""
"529","[{""page_index"":0,""viewing_time"":2029}]","2030","instructions","15","204866","0.0-15.0",28,"US","","","","","","","","","","","","","","",""
"530","","","RMTStest","16","208513","0.0-16.0",28,"US","","","","","","","","img/hatbox.png","1568597241137","","-1568597031940.815","rightTestButton","L","img/b.png,img/b.png","img/m.png,img/f.png"
"531","","","RMTStest","17","209761","0.0-17.0",28,"US","","","","","","","","img/hatbox.png","1568597242785","","-1568597032340.795","leftTestButton","R","img/h.png,img/h.png","img/c.png,img/k.png"
"532","","","RMTStest","18","210921","0.0-18.0",28,"US","","","","","","","","img/hatbox.png","1568597244032","","-1568597032427.85","leftTestButton","R","img/e.png,img/e.png","img/g.png,img/d.png"
"533","[{""page_index"":0,""viewing_time"":10597},{""page_index"":1,""viewing_time"":18628}]","29226","instructions","0","29228","0.0-0.0",29,"US","","","","","","","","","","","","","","",""
"534","","6327","audio-keyboard-response","1","37671","0.0-1.0",29,"US","sound/letter.wav","81","congruent","true","","","","","","","","","","",""
"535","","","RMTStrain","2","65254","0.0-2.0",29,"US","","","","","img/2.png","img/6.png","true","img/box.png","1565390436061","1565390463644","","","","",""
"536","","","RMTStrain","3","91513","0.0-3.0",29,"US","","","","","img/11.png","img/11.png","false","img/box.png","1565390463644","1565390489902","","","","",""
"537","","","RMTStrain","4","124546","0.0-4.0",29,"US","","","","","img/13.png","img/12.png","true","img/box.png","1565390489903","1565390522936","","","","",""
"538","","","RMTStrain","5","143418","0.0-5.0",29,"US","","","","","img/7.png","img/7.png","false","img/box.png","1565390522936","1565390541808","","","","",""
"539","[{""page_index"":0,""viewing_time"":15623}]","15623","instructions","6","159041","0.0-6.0",29,"US","","","","","","","","","","","","","","",""
"540","","","RMTStest","7","165019","0.0-7.0",29,"US","","","","","","","","img/box.png","1565390559433","","-1565390383301.58","rightTestButton","L","img/8.png,img/8.png","img/10.png,img/9.png"
"541","","","RMTStest","8","167363","0.0-8.0",29,"US","","","","","","","","img/box.png","1565390563409","","-1565390384934.07","rightTestButton","L","img/3.png,img/3.png","img/14.png,img/4.png"
"542","","","RMTStest","9","169224","0.0-9.0",29,"US","","","","","","","","img/box.png","1565390565753","","-1565390385416.785","leftTestButton","R","img/5.png,img/5.png","img/15.png,img/1.png"
"543","[{""page_index"":0,""viewing_time"":12012}]","12012","instructions","10","181237","0.0-10.0",29,"US","","","","","","","","","","","","","","",""
"544","","","RMTStrain","11","207061","0.0-11.0",29,"US","","","","","img/e.png","img/e.png","true","img/hatbox.png","1565390581628","1565390605451","","","","",""
"545","","","RMTStrain","12","229092","0.0-12.0",29,"US","","","","","img/c.png","img/j.png","false","img/hatbox.png","1565390605451","1565390627482","","","","",""
"546","","","RMTStrain","13","249420","0.0-13.0",29,"US","","","","","img/l.png","img/l.png","true","img/hatbox.png","1565390627482","1565390647810","","","","",""
"547","","","RMTStrain","14","268982","0.0-14.0",29,"US","","","","","img/m.png","img/b.png","false","img/hatbox.png","1565390647810","1565390667372","","","","",""
"548","[{""page_index"":0,""viewing_time"":4579}]","4579","instructions","15","273561","0.0-15.0",29,"US","","","","","","","","","","","","","","",""
"549","","","RMTStest","16","278521","0.0-16.0",29,"US","","","","","","","","img/hatbox.png","1565390673953","","-1565390384323.565","rightTestButton","R","img/i.png,img/i.png","img/k.png,img/o.png"
"550","","","RMTStest","17","279683","0.0-17.0",29,"US","","","","","","","","img/hatbox.png","1565390676911","","-1565390386119.38","rightTestButton","R","img/d.png,img/d.png","img/a.png,img/g.png"
"551","","","RMTStest","18","281341","0.0-18.0",29,"US","","","","","","","","img/hatbox.png","1565390678073","","-1565390385622.71","leftTestButton","L","img/h.png,img/h.png","img/n.png,img/f.png"
"552","[{""page_index"":0,""viewing_time"":1479},{""page_index"":1,""viewing_time"":3532}]","5012","instructions","0","5030","0.0-0.0",30,"US","","","","","","","","","","","","","","",""
"553","","741","audio-keyboard-response","1","7789","0.0-1.0",30,"US","sound/letter.wav","81","congruent","true","","","","","","","","","","",""
"554","","","RMTStrain","2","34022","0.0-2.0",30,"US","","","","","img/g.png","img/i.png","true","img/box.png","1568598808400","1568598834631","","","","",""
"555","","","RMTStrain","3","54261","0.0-3.0",30,"US","","","","","img/c.png","img/c.png","false","img/box.png","1568598834633","1568598854870","","","","",""
"556","","","RMTStrain","4","80200","0.0-4.0",30,"US","","","","","img/h.png","img/n.png","true","img/box.png","1568598854871","1568598880810","","","","",""
"557","","","RMTStrain","5","112247","0.0-5.0",30,"US","","","","","img/l.png","img/l.png","false","img/box.png","1568598880810","1568598912857","","","","",""
"558","[{""page_index"":0,""viewing_time"":12448}]","12449","instructions","6","124696","0.0-6.0",30,"US","","","","","","","","","","","","","","",""
"559","","","RMTStest","7","130485","0.0-7.0",30,"US","","","","","","","","img/box.png","1568598927309","","-1568598794636.61","rightTestButton","R","img/f.png,img/f.png","img/j.png,img/a.png"
"560","","","RMTStest","8","133427","0.0-8.0",30,"US","","","","","","","","img/box.png","1568598931096","","-1568598795481.43","leftTestButton","R","img/e.png,img/e.png","img/d.png,img/o.png"
"561","","","RMTStest","9","134755","0.0-9.0",30,"US","","","","","","","","img/box.png","1568598934038","","-1568598797095.785","rightTestButton","L","img/b.png,img/b.png","img/m.png,img/k.png"
"562","[{""page_index"":0,""viewing_time"":1770}]","1771","instructions","10","136527","0.0-10.0",30,"US","","","","","","","","","","","","","","",""
"563","","","RMTStrain","11","158645","0.0-11.0",30,"US","","","","","img/5.png","img/5.png","true","img/hatbox.png","1568598939140","1568598959255","","","","",""
"564","","","RMTStrain","12","186175","0.0-12.0",30,"US","","","","","img/1.png","img/3.png","false","img/hatbox.png","1568598959255","1568598986785","","","","",""
"565","","","RMTStrain","13","213548","0.0-13.0",30,"US","","","","","img/2.png","img/2.png","true","img/hatbox.png","1568598986785","1568599014158","","","","",""
"566","","","RMTStrain","14","250890","0.0-14.0",30,"US","","","","","img/6.png","img/7.png","false","img/hatbox.png","1568599014158","1568599051500","","","","",""
"567","[{""page_index"":0,""viewing_time"":3823}]","3825","instructions","15","254715","0.0-15.0",30,"US","","","","","","","","","","","","","","",""
"568","","","RMTStest","16","259010","0.0-16.0",30,"US","","","","","","","","img/hatbox.png","1568599057326","","-1568598796130.02","rightTestButton","R","img/11.png,img/11.png","img/4.png,img/14.png"
"569","","","RMTStest","17","260074","0.0-17.0",30,"US","","","","","","","","img/hatbox.png","1568599059620","","-1568598797360.205","leftTestButton","L","img/13.png,img/13.png","img/12.png,img/15.png"
"570","","","RMTStest","18","261087","0.0-18.0",30,"US","","","","","","","","img/hatbox.png","1568599060684","","-1568598797411.3","leftTestButton","L","img/10.png,img/10.png","img/9.png,img/8.png"
"571","[{""page_index"":0,""viewing_time"":5820},{""page_index"":1,""viewing_time"":7546}]","13367","instructions","0","13371","0.0-0.0",31,"US","","","","","","","","","","","","","","",""
"572","","5192","audio-keyboard-response","1","20575","0.0-1.0",31,"US","sound/letter.wav","81","congruent","true","","","","","","","","","","",""
"573","","","RMTStrain","2","41485","0.0-2.0",31,"US","","","","","img/a.png","img/a.png","true","img/box.png","1568599308167","1568599329075","","","","",""
"574","","","RMTStrain","3","61272","0.0-3.0",31,"US","","","","","img/l.png","img/d.png","false","img/box.png","1568599329076","1568599348862","","","","",""
"575","","","RMTStrain","4","80945","0.0-4.0",31,"US","","","","","img/b.png","img/b.png","true","img/box.png","1568599348862","1568599368535","","","","",""
"576","","","RMTStrain","5","101985","0.0-5.0",31,"US","","","","","img/i.png","img/m.png","false","img/box.png","1568599368536","1568599389575","","","","",""
"577","[{""page_index"":0,""viewing_time"":6665}]","6665","instructions","6","108650","0.0-6.0",31,"US","","","","","","","","","","","","","","",""
"578","","","RMTStest","7","113050","0.0-7.0",31,"US","","","","","","","","img/box.png","1568599398242","","-1568599277998.43","rightTestButton","R","img/e.png,img/e.png","img/j.png,img/g.png"
"579","","","RMTStest","8","115973","0.0-8.0",31,"US","","","","","","","","img/box.png","1568599400641","","-1568599277473.59","rightTestButton","R","img/f.png,img/f.png","img/n.png,img/c.png"
"580","","","RMTStest","9","117291","0.0-9.0",31,"US","","","","","","","","img/box.png","1568599403563","","-1568599279077.86","leftTestButton","L","img/h.png,img/h.png","img/o.png,img/k.png"
